trial_number	correct	fast_or_slow	fix_duration	isi_duration	left_or_right	keypressed	RT	fixation_time	go_time	target_duration	response_time	trial_length	pd_parser_sample
1	1	fast	0.3	0.7	right	79	0.60979	0.36274	1.3356	0.86014	1.9251	5.6822	n/a
2	1	fast	0.5	0.6	right	79	0.61685	0.333	1.4375	0.86014	2.0346	5.7851	n/a
3	0	fast	0.4	0.5	left	80	0.45833	0.33325	1.2382	0.86014	1.6769	5.5859	n/a
4	1	fast	0.6	0.5	right	79	0.45093	0.31677	1.4393	0.86014	1.8703	5.7868	n/a
5	1	fast	0.6	0.3	right	79	0.58519	0.33244	1.2371	0.86014	1.8067	5.5914	n/a
6	0	fast	0.6	0.6	left	80	0.37658	0.32661	1.5315	0.86014	1.8877	5.8794	n/a
7	0	fast	0.7	0.6	left	80	0.51589	0.33271	1.639	0.86014	2.1348	5.986	n/a
8	1	fast	0.6	0.6	right	79	0.54456	0.33338	1.5381	0.86014	2.0627	5.8864	n/a
9	1	fast	0.3	0.7	right	79	0.48726	0.33325	1.3381	0.86014	1.8064	5.6866	n/a
10	0	fast	0.6	0.7	left	80	0.39525	0.33209	1.6376	0.86014	2.0127	5.9848	n/a
11	0	fast	0.7	0.6	left	80	0.47929	0.33345	1.6395	0.86014	2.0989	5.9871	n/a
12	1	fast	0.7	0.5	right	79	0.43758	0.33233	1.5381	0.86014	1.9553	5.8849	n/a
13	0	fast	0.7	0.5	left	80	0.56629	0.33371	1.5403	0.86014	2.0871	5.8882	n/a
14	0	fast	0.3	0.3	left	80	0.49618	0.33184	0.93728	0.86014	1.4137	5.285	n/a
15	0	fast	0.7	0.5	left	80	0.53381	0.33281	1.5374	0.86014	2.0518	5.8852	n/a
16	1	fast	0.6	0.6	right	79	0.43138	0.33345	1.5387	0.86014	1.9498	5.8855	n/a
17	1	fast	0.4	0.3	right	79	0.55168	0.3336	1.0397	0.86014	1.5707	5.3859	n/a
18	0	fast	0.5	0.6	left	80	0.40421	0.33371	1.4382	0.86014	1.8225	5.7854	n/a
19	1	fast	0.7	0.6	right	79	0.40694	0.33441	1.6405	0.86014	2.0278	5.9883	n/a
20	1	fast	0.5	0.7	right	79	0.53105	0.33304	1.5379	0.86014	2.0484	5.8843	n/a
21	1	fast	0.7	0.4	right	79	0.44339	0.33447	1.4413	0.86014	1.8626	5.787	n/a
22	1	fast	0.7	0.6	right	79	0.51785	0.3339	1.6383	0.86014	2.1382	5.9874	n/a
23	1	fast	0.4	0.6	right	79	0.41653	0.33294	1.3373	0.86014	1.7338	5.6851	n/a
24	1	fast	0.3	0.4	right	79	0.42006	0.33331	1.0375	0.86014	1.437	5.3843	n/a
25	0	fast	0.5	0.4	left	80	0.51492	0.33453	1.2403	0.86014	1.735	5.5875	n/a
26	1	fast	0.6	0.3	right	79	0.5095	0.35012	1.2382	0.86014	1.7274	5.586	n/a
27	1	fast	0.5	0.3	right	79	0.39304	0.35018	1.1394	0.86014	1.5114	5.4864	n/a
28	1	fast	0.5	0.3	right	79	0.5745	0.33301	1.1384	0.86014	1.6928	5.4863	n/a
29	1	fast	0.5	0.3	right	79	0.40784	0.33211	1.1357	0.86014	1.5259	5.4856	n/a
30	0	fast	0.5	0.3	left	80	0.36498	0.33339	1.1385	0.86014	1.4828	5.4858	n/a
31	0	fast	0.5	0.5	left	80	0.56363	0.33253	1.3401	0.86014	1.8819	5.6863	n/a
32	1	fast	0.6	0.3	right	79	0.4382	0.33283	1.2382	0.86014	1.6561	5.5861	n/a
33	0	fast	0.6	0.7	left	80	0.39309	0.33232	1.6377	0.86014	2.011	5.9859	n/a
34	0	fast	0.5	0.7	left	80	0.55164	0.34974	1.5378	0.86014	2.0695	5.8861	n/a
35	0	fast	0.4	0.3	left	80	0.41626	0.34952	1.0376	0.86014	1.4331	5.3852	n/a
36	0	fast	0.3	0.5	left	80	0.47379	0.35009	1.1387	0.86014	1.5921	5.4863	n/a
37	1	fast	0.5	0.6	right	79	0.41207	0.34928	1.4373	0.86014	1.8289	5.7884	n/a
38	0	fast	0.6	0.5	left	80	0.47853	0.34929	1.4361	0.86014	1.8941	5.784	n/a
39	1	fast	0.3	0.4	right	79	0.55932	0.34982	1.0377	0.86014	1.5767	5.3851	n/a
40	1	fast	0.3	0.5	right	79	0.53228	0.35058	1.1391	0.86014	1.6511	5.4865	n/a
41	0	fast	0.3	0.5	left	80	0.4539	0.35017	1.1369	0.86014	1.5711	5.485	n/a
42	0	fast	0.5	0.6	left	80	0.55551	0.35041	1.4398	0.86014	1.9747	5.7875	n/a
43	0	fast	0.5	0.6	left	80	0.44882	0.34844	1.4375	0.86014	1.867	5.7868	n/a
44	0	fast	0.4	0.6	left	80	0.33196	0.34811	1.3344	0.86014	1.6512	5.6873	n/a
45	1	fast	0.7	0.3	right	79	0.44432	0.34756	1.3357	0.86014	1.7592	5.6824	n/a
46	1	fast	0.6	0.4	right	79	0.53153	0.36767	1.3399	0.86014	1.8507	5.6892	n/a
47	0	fast	0.3	0.3	left	80	0.48263	0.34753	0.93376	0.86014	1.3985	5.2845	n/a
48	0	fast	0.7	0.7	left	80	0.40508	0.34878	1.7384	0.86014	2.1225	6.086	n/a
49	1	fast	0.7	0.7	right	79	0.45603	0.34922	1.7366	0.86014	2.1747	6.0897	n/a
50	0	fast	0.5	0.3	left	80	0.42116	0.37844	1.1335	0.86014	1.5349	5.4884	n/a
51	1	fast	0.5	0.5	right	79	0.42136	0.37626	1.3303	0.86014	1.7327	5.68	n/a
52	1	fast	0.4	0.5	right	79	0.56026	0.34958	1.2373	0.86014	1.7774	5.5858	n/a
53	0	fast	0.3	0.3	left	80	0.35179	0.34919	0.93606	0.86014	1.2697	5.2867	n/a
54	0	fast	0.4	0.4	left	80	0.52192	0.34884	1.1371	0.86014	1.6388	5.4854	n/a
55	1	fast	0.5	0.5	right	79	0.4216	0.34933	1.3376	0.86014	1.7389	5.686	n/a
56	1	fast	0.5	0.3	right	79	0.50511	0.36603	1.1381	0.86014	1.6225	5.4861	n/a
57	1	fast	0.4	0.3	right	79	0.50744	0.36586	1.0374	0.86014	1.5246	5.3861	n/a
58	1	fast	0.7	0.7	right	79	0.39709	0.34887	1.7374	0.86014	2.1141	6.0858	n/a
59	0	fast	0.3	0.7	left	80	0.41992	0.34908	1.3361	0.86014	1.7357	5.6847	n/a
60	1	fast	0.7	0.4	right	79	0.51942	0.35069	1.4403	0.86014	1.9393	5.789	n/a
61	1	fast	0.6	0.4	right	79	0.49189	0.36432	1.3342	0.86014	1.8084	5.6856	n/a
62	0	fast	0.5	0.7	left	80	0.47112	0.36397	1.5354	0.86014	1.9874	5.8883	n/a
63	0	fast	0.3	0.3	left	80	0.40271	0.36159	0.9338	0.86014	1.316	5.2812	n/a
64	1	fast	0.3	0.7	right	79	0.36599	0.36638	1.3374	0.86014	1.6839	5.6868	n/a
65	0	fast	0.3	0.5	left	80	0.45326	0.36628	1.1371	0.86014	1.5701	5.4857	n/a
66	1	fast	0.4	0.5	right	79	0.52463	0.36575	1.238	0.86014	1.7425	5.5871	n/a
67	1	fast	0.7	0.6	right	79	0.45793	0.36486	1.6357	0.86014	2.076	5.9867	n/a
68	1	fast	0.3	0.3	right	79	0.39698	0.3649	0.93487	0.86014	1.3138	5.2864	n/a
69	1	fast	0.7	0.5	right	79	0.46081	0.36389	1.5356	0.86014	1.9761	5.8849	n/a
70	0	fast	0.4	0.3	left	80	0.45834	0.3652	1.0347	0.86014	1.4748	5.3864	n/a
71	1	slow	0.7	0.7	right	79	2.0203	0.42973	1.7329	2.2937	3.7352	7.5164	n/a
72	0	slow	0.3	0.4	left	80	0.37749	0.3158	1.037	2.2937	1.395	6.8193	1312639
73	1	slow	0.4	0.3	right	79	0.43495	0.31627	1.038	2.2937	1.4534	6.8202	1319459
74	0	slow	0.4	0.3	left	80	0.50837	0.31632	1.0381	2.2937	1.5268	6.8206	1326280
75	0	slow	0.4	0.4	left	80	0.57342	0.33182	1.1351	2.2937	1.6914	6.9199	1333116
76	0	slow	0.4	0.6	right	80	0.32922	0.33179	1.3367	2.2937	1.6467	7.1192	1340037
77	1	slow	0.3	0.6	right	79	0.50834	0.33301	1.2384	2.2937	1.7268	7.02	1347157
78	1	slow	0.5	0.7	right	79	0.41597	0.33302	1.5378	2.2937	1.9342	7.3256	1354177
79	1	slow	0.6	0.3	right	79	0.50734	0.32792	1.2323	2.2937	1.7196	7.0139	n/a
80	0	slow	0.7	0.7	left	80	0.49852	0.33326	1.7384	2.2937	2.218	7.5211	1368518
81	1	slow	0.3	0.5	right	79	0.38824	0.33295	1.1386	2.2937	1.5073	6.9209	1376038
82	0	slow	0.4	0.5	left	80	0.36681	0.3321	1.2377	2.2937	1.5839	7.0194	1382958
83	1	slow	0.4	0.7	right	79	0.51091	0.33244	1.4366	2.2937	1.9272	7.2181	n/a
84	1	slow	0.7	0.3	right	79	0.42456	0.33495	1.3394	2.2937	1.7438	7.1213	1397199
85	1	slow	0.5	0.4	right	79	0.44782	0.33368	1.2374	2.2937	1.6652	7.0198	1404319
86	1	slow	0.5	0.6	right	79	0.47488	0.33281	1.4382	2.2937	1.8936	7.2208	1411339
87	1	slow	0.6	0.7	right	79	0.4615	0.33273	1.6377	2.2937	2.0789	7.4197	1418560
88	0	slow	0.4	0.7	left	80	0.37266	0.33272	1.4382	2.2937	1.791	7.2208	1425980
89	1	slow	0.6	0.6	right	79	0.48077	0.33245	1.5372	2.2937	1.9985	7.3302	1433200
90	0	slow	0.5	0.5	left	80	0.41339	0.33935	1.3278	2.2937	1.7202	7.1094	1440537
91	0	slow	0.6	0.7	left	80	0.42829	0.33262	1.638	2.2937	2.0457	7.4202	1447641
92	1	slow	0.5	0.3	right	79	0.51701	0.33264	1.1372	2.2937	1.6344	6.9201	1455062
93	1	slow	0.6	0.5	right	79	0.39063	0.33269	1.4399	2.2937	1.8083	7.2205	1461982
94	1	slow	0.6	0.6	right	79	0.45643	0.3321	1.5375	2.2937	1.9744	7.3286	1469202
95	1	slow	0.3	0.3	right	79	0.38382	0.34058	0.92788	2.2937	1.2916	6.7101	1476539
96	0	slow	0.3	0.6	left	80	0.43363	0.33354	1.2386	2.2937	1.6523	7.0217	n/a
97	1	slow	0.3	0.5	right	79	0.38033	0.33189	1.1361	2.2937	1.4961	6.9183	1490263
98	0	slow	0.7	0.4	left	80	0.45509	0.33353	1.437	2.2937	1.8745	7.223	n/a
99	0	slow	0.3	0.7	left	80	0.38202	0.34657	1.3358	2.2937	1.6974	7.1204	1504420
100	0	slow	0.4	0.3	left	80	0.49111	0.3465	1.0353	2.2937	1.5062	6.8181	1511540
101	1	slow	0.7	0.4	right	79	0.49851	0.34869	1.4365	2.2937	1.9148	7.2192	1518360
102	1	slow	0.4	0.5	right	79	0.44424	0.33288	1.2375	2.2937	1.6619	7.0207	1525564
103	0	slow	0.7	0.3	left	80	0.38487	0.3488	1.3371	2.2937	1.7018	7.1201	1532601
104	0	slow	0.3	0.7	left	80	0.43602	0.34908	1.337	2.2937	1.7532	7.1203	1539721
105	0	slow	0.4	0.5	left	80	0.38723	0.34899	1.236	2.2937	1.6035	7.0187	1546841
106	0	slow	0.7	0.7	left	80	0.34288	0.34939	1.7378	2.2937	2.0612	7.5215	n/a
107	1	slow	0.5	0.3	right	79	0.5504	0.34849	1.137	2.2937	1.6673	6.9203	1561382
108	1	slow	0.3	0.4	right	79	0.4424	0.34878	1.0356	2.2937	1.458	6.8207	1568302
109	1	slow	0.5	0.4	right	79	0.47334	0.34727	1.2357	2.2937	1.6891	7.019	1575122
110	1	slow	0.5	0.3	right	79	0.41629	0.34781	1.136	2.2937	1.5323	6.9195	1582143
111	0	slow	0.6	0.3	left	80	0.47281	0.34896	1.237	2.2937	1.6895	7.0201	1589063
112	1	slow	0.7	0.7	right	79	0.49312	0.34824	1.7367	2.2937	2.2102	7.5206	1596083
113	0	slow	0.3	0.4	left	80	0.33966	0.34847	1.0343	2.2937	1.356	6.8204	1603603
114	1	slow	0.7	0.3	right	79	0.42494	0.34746	1.3352	2.2937	1.7421	7.1198	1610424
115	1	slow	0.7	0.7	right	79	0.46954	0.3472	1.7336	2.2937	2.1882	7.5222	1617544
116	0	slow	0.4	0.5	left	80	0.49869	0.34597	1.2336	2.2937	1.7122	7.0171	1625064
117	0	slow	0.3	0.7	left	80	0.44946	0.34838	1.3373	2.2937	1.7662	7.1203	1632085
118	0	slow	0.4	0.7	left	80	0.5189	0.34823	1.4369	2.2937	1.9357	7.2207	1639205
119	0	slow	0.6	0.6	left	80	0.42059	0.34722	1.5363	2.2937	1.9365	7.3189	1646425
120	1	slow	0.4	0.6	right	79	0.41648	0.34924	1.3354	2.2937	1.7339	7.1213	1653746
121	1	slow	0.4	0.3	right	79	0.53663	0.34732	1.0367	2.2937	1.5525	6.8199	n/a
122	0	slow	0.7	0.4	left	80	0.54723	0.36414	1.4389	2.2937	1.9655	7.225	n/a
123	1	slow	0.7	0.3	left	79	0.35154	0.35886	1.33	2.2937	1.6631	7.1156	1674923
124	1	slow	0.5	0.7	right	79	0.55878	0.34748	1.5346	2.2937	2.0728	7.318	1682027
125	0	slow	0.7	0.4	left	80	0.42123	0.3486	1.437	2.2937	1.8382	7.2209	1689347
126	0	slow	0.7	0.4	left	80	0.42849	0.3486	1.4352	2.2937	1.8482	7.2237	1696567
127	1	slow	0.7	0.6	right	79	0.42223	0.36124	1.6338	2.2937	2.0355	7.4186	1703804
128	1	slow	0.3	0.5	right	79	0.42083	0.3634	1.1373	2.2937	1.536	6.9195	1711225
129	0	slow	0.4	0.7	left	80	0.51837	0.36326	1.4347	2.2937	1.9327	7.2186	1718145
130	0	slow	0.5	0.5	left	80	0.53411	0.36466	1.3373	2.2937	1.8501	7.1202	1725365
131	1	slow	0.3	0.6	right	79	0.36768	0.36456	1.2361	2.2937	1.5837	7.0204	1732485
132	1	slow	0.3	0.4	right	79	0.39632	0.36415	1.0363	2.2937	1.4122	6.8202	1739506
133	0	slow	0.3	0.6	left	80	0.43606	0.36339	1.2363	2.2937	1.6522	7.0207	1746326
134	1	slow	0.7	0.5	right	79	0.44272	0.36353	1.535	2.2937	1.9599	7.3215	1753346
135	0	slow	0.4	0.6	left	80	0.39181	0.37829	1.3337	2.2937	1.7051	7.1176	1760683
136	1	slow	0.6	0.6	right	79	0.44152	0.3642	1.5338	2.2937	1.9569	7.3186	1767787
137	0	slow	0.3	0.7	left	80	0.44493	0.36552	1.3382	2.2937	1.7624	7.122	1775107
138	0	slow	0.4	0.4	left	80	0.48728	0.37999	1.1364	2.2937	1.6029	6.9199	1782244
139	0	slow	0.3	0.4	left	80	0.37988	0.36411	1.0354	2.2937	1.3948	6.818	1789148
140	1	slow	0.7	0.4	right	79	0.36803	0.3655	1.4386	2.2937	1.7889	7.225	1795968
141	0	slow	0.6	0.7	left	80	0.57486	0.39071	1.6283	2.2937	2.1849	7.4128	1977576
142	1	slow	0.5	0.5	right	79	0.30622	0.31516	1.3361	2.2937	1.6225	7.1231	1984913
143	0	slow	0.5	0.6	left	80	0.35932	0.32835	1.433	2.2937	1.7722	7.216	1992050
144	0	slow	0.5	0.6	left	80	0.37093	0.33243	1.4367	2.2937	1.7887	7.2212	1999271
145	0	slow	0.5	0.3	left	80	0.44059	0.3317	1.1366	2.2937	1.5574	6.9195	2006491
146	1	slow	0.7	0.7	left	79	0.31384	0.33154	1.7371	2.2937	2.0311	7.5208	2013411
147	0	slow	0.7	0.5	left	80	0.38711	0.33092	1.5367	2.2937	1.9042	7.3204	2020932
148	1	slow	0.6	0.6	right	79	0.49169	0.33031	1.5338	2.2937	2.0079	7.3211	2028252
149	1	slow	0.7	0.5	right	79	0.60989	0.33005	1.5344	2.2937	2.1239	7.3176	2035572
150	1	slow	0.5	0.3	right	79	0.49197	0.33152	1.1371	2.2937	1.6093	6.9211	2042893
151	1	slow	0.3	0.5	right	79	0.45553	0.33075	1.1347	2.2937	1.5706	6.919	2049813
152	1	slow	0.6	0.4	right	79	0.51987	0.33189	1.3368	2.2937	1.8367	7.1208	2056733
153	1	slow	0.6	0.4	right	79	0.53145	0.33095	1.3363	2.2937	1.8476	7.1201	2063853
154	0	slow	0.4	0.4	left	80	0.38474	0.33062	1.1359	2.2937	1.5004	6.9193	2070974
155	0	slow	0.7	0.6	left	80	0.51302	0.3312	1.6379	2.2937	2.131	7.4218	2077894
156	1	slow	0.6	0.4	right	79	0.45103	0.32948	1.3361	2.2937	1.7668	7.1195	2085314
157	1	slow	0.3	0.5	right	79	0.44404	0.33051	1.1354	2.2937	1.5597	6.9196	2092435
158	0	slow	0.6	0.3	left	80	0.47866	0.3308	1.2353	2.2937	1.6943	7.0196	2099355
159	0	slow	0.7	0.4	left	80	0.37093	0.33156	1.4356	2.2937	1.7871	7.22	2106375
160	1	slow	0.6	0.6	right	79	0.48116	0.33107	1.537	2.2937	1.9974	7.3204	2113595
161	1	slow	0.6	0.5	right	79	0.43406	0.33057	1.436	2.2937	1.8493	7.2192	2120916
162	1	slow	0.5	0.4	right	79	0.43168	0.33229	1.2372	2.2937	1.6485	7.0209	2128136
163	0	slow	0.6	0.7	left	80	0.44521	0.33158	1.6351	2.2937	2.06	7.419	2135156
164	0	slow	0.4	0.3	left	80	0.50324	0.3321	1.0352	2.2937	1.5209	6.8218	2142577
165	0	slow	0.5	0.3	left	80	0.36836	0.33039	1.1348	2.2937	1.4828	6.9188	2149397
166	1	slow	0.3	0.5	right	79	0.37307	0.33109	1.136	2.2937	1.4889	6.9201	2156317
167	0	slow	0.4	0.4	left	80	0.42588	0.33094	1.1368	2.2937	1.5428	6.9213	2163237
168	0	slow	0.6	0.3	left	80	0.45366	0.33004	1.2353	2.2937	1.6688	7.0197	2170157
169	0	slow	0.5	0.3	left	80	0.34756	0.34757	1.1342	2.2937	1.4619	6.9187	2177194
170	0	slow	0.6	0.4	left	80	0.32389	0.33122	1.3362	2.2937	1.64	7.1207	2184098
171	0	slow	0.3	0.4	left	80	0.45691	0.34704	1.0338	2.2937	1.4729	6.8206	2191235
172	0	slow	0.5	0.3	left	80	0.43197	0.36374	1.1356	2.2937	1.5472	6.9197	2198071
173	1	slow	0.3	0.5	right	79	0.3459	0.34719	1.1347	2.2937	1.4609	6.9199	2204975
174	0	slow	0.5	0.3	left	80	0.4366	0.34665	1.1348	2.2937	1.5511	6.9191	2211895
175	0	slow	0.3	0.7	left	80	0.42729	0.34761	1.336	2.2937	1.7431	7.1201	2218815
176	1	slow	0.6	0.3	right	79	0.36943	0.34777	1.2364	2.2937	1.5851	7.0205	2225936
177	0	slow	0.7	0.7	left	80	0.37787	0.34705	1.7361	2.2937	2.0944	7.5213	2232956
178	1	slow	0.7	0.5	right	79	0.34366	0.34524	1.5352	2.2937	1.857	7.3181	2240476
179	1	slow	0.6	0.7	right	79	0.4611	0.34786	1.6368	2.2937	2.0777	7.4217	2247797
180	0	slow	0.6	0.5	left	80	0.455	0.34616	1.4346	2.2937	1.8696	7.2209	2255217
181	0	slow	0.4	0.5	left	80	0.5083	0.34479	1.2341	2.2937	1.7221	7.0195	2262437
182	1	slow	0.7	0.6	right	79	0.41944	0.36285	1.6335	2.2937	2.0353	7.4209	2269474
183	1	slow	0.7	0.6	right	79	0.45714	0.34513	1.634	2.2937	2.0707	7.4198	2276878
184	0	slow	0.5	0.6	left	80	0.34793	0.34595	1.4343	2.2937	1.7621	7.2209	2284298
185	1	slow	0.4	0.4	right	79	0.35962	0.34469	1.1325	2.2937	1.4718	6.9173	2291519
186	1	slow	0.3	0.4	right	79	0.44339	0.34684	1.0352	2.2937	1.4585	6.8203	2298439
187	0	slow	0.6	0.3	left	80	0.47982	0.34665	1.2351	2.2937	1.6945	7.0199	2305259
188	1	slow	0.6	0.3	right	79	0.45061	0.34567	1.2339	2.2937	1.6643	7.0191	2312279
189	0	slow	0.4	0.4	left	80	0.37954	0.34685	1.1353	2.2937	1.4943	6.9203	2319300
190	0	slow	0.5	0.6	left	80	0.40509	0.34634	1.435	2.2937	1.8198	7.2202	2326220
191	1	slow	0.4	0.3	right	79	0.40848	0.36337	1.0356	2.2937	1.424	6.8215	2333457
192	1	slow	0.4	0.7	right	79	0.48913	0.34438	1.4336	2.2937	1.9025	7.2186	2340260
193	1	slow	0.4	0.4	right	79	0.43575	0.34645	1.1352	2.2937	1.5505	6.9206	2347481
194	0	slow	0.4	0.6	left	80	0.42083	0.36226	1.3347	2.2937	1.7347	7.1197	2354417
195	0	slow	0.7	0.7	left	80	0.51465	0.3631	1.7351	2.2937	2.2295	7.5202	2361538
196	0	slow	0.7	0.6	left	80	0.35471	0.34667	1.6343	2.2937	1.9684	7.4194	2369041
197	0	slow	0.7	0.3	left	80	0.4272	0.36314	1.3352	2.2937	1.7424	7.121	2376479
198	1	slow	0.3	0.5	right	79	0.39548	0.36285	1.1325	2.2937	1.5103	6.9205	2383599
199	1	slow	0.3	0.4	right	79	0.39055	0.36151	1.0328	2.2937	1.4034	6.8196	2390519
200	0	slow	0.4	0.6	left	80	0.4109	0.36213	1.3337	2.2937	1.7242	7.1188	2397339
201	0	slow	0.5	0.3	left	80	0.45363	0.36336	1.1331	2.2937	1.5686	6.9209	2404459
202	1	slow	0.5	0.4	right	79	0.54691	0.36272	1.2321	2.2937	1.761	7.0226	2411380
203	1	slow	0.7	0.7	right	79	0.48866	0.36005	1.7316	2.2937	2.2002	7.5177	2418400
204	0	slow	0.7	0.7	left	80	0.41823	0.36228	1.7334	2.2937	2.1311	7.5189	2425920
205	0	slow	0.4	0.5	left	80	0.41623	0.36392	1.2358	2.2937	1.6316	7.0199	2433441
206	0	slow	0.5	0.6	left	80	0.37728	0.36314	1.4336	2.2937	1.7924	7.2233	2440461
207	0	slow	0.5	0.4	left	80	0.36393	0.36025	1.2319	2.2937	1.5751	7.0186	2447681
208	1	slow	0.6	0.5	right	79	0.44701	0.36214	1.4338	2.2937	1.8607	7.2209	2454702
209	1	slow	0.4	0.5	right	79	0.38591	0.36172	1.2305	2.2937	1.5983	7.02	2461922
210	0	slow	0.7	0.4	left	80	0.49265	0.36115	1.4312	2.2937	1.9055	7.2182	2468942
211	0	fast	0.7	0.5	left	80	0.94148	0.39409	1.5334	0.86014	2.4546	5.8841	2491987
212	0	fast	0.6	0.3	right	80	0.39344	0.32965	1.2343	0.86014	1.6074	5.585	2497807
213	0	fast	0.6	0.4	left	80	0.44706	0.33028	1.3354	0.86014	1.7622	5.6859	2503393
214	1	fast	0.6	0.5	right	79	0.37259	0.33043	1.4368	0.86014	1.789	5.7869	2509079
215	0	fast	0.4	0.6	left	80	0.37042	0.32992	1.335	0.86014	1.6855	5.6854	2514866
216	1	fast	0.4	0.7	right	79	0.37366	0.33038	1.4348	0.86014	1.7886	5.7862	2520552
217	1	fast	0.7	0.3	right	79	0.35691	0.33036	1.3359	0.86014	1.6725	5.6861	2526338
218	0	fast	0.6	0.7	left	80	0.50126	0.33049	1.6354	0.86014	2.1168	5.9868	2532024
219	0	fast	0.3	0.6	left	80	0.52272	0.32989	1.2331	0.86014	1.7378	5.5865	2538011
220	1	fast	0.3	0.7	right	79	0.4466	0.32873	1.3339	0.86014	1.761	5.6857	2543597
221	0	fast	0.5	0.7	left	80	0.43945	0.32976	1.5346	0.86014	1.9536	5.8854	2549283
222	1	fast	0.4	0.4	right	79	0.53173	0.33016	1.1355	0.86014	1.6477	5.4866	2555169
223	1	fast	0.4	0.6	right	79	0.60584	0.32978	1.3346	0.86014	1.921	5.6866	2560655
224	1	fast	0.6	0.4	right	79	0.39545	0.32871	1.3324	0.86014	1.7093	5.6858	2566342
225	1	fast	0.5	0.7	right	79	0.40636	0.32925	1.5356	0.86014	1.9203	5.8855	2572028
226	1	fast	0.3	0.6	right	79	0.40602	0.3298	1.2351	0.86014	1.6214	5.5875	2577914
227	1	fast	0.3	0.4	right	79	0.36234	0.32795	1.0331	0.86014	1.3753	5.3848	2583500
228	0	fast	0.5	0.3	left	80	0.36626	0.32959	1.1343	0.86014	1.4806	5.4865	2588886
229	1	fast	0.6	0.5	right	79	0.40278	0.32958	1.4332	0.86014	1.8164	5.7857	2594373
230	1	fast	0.4	0.5	right	79	0.54278	0.32877	1.2338	0.86014	1.7564	5.5851	2600159
231	1	fast	0.6	0.3	right	79	0.43715	0.33042	1.2345	0.86014	1.652	5.587	2605745
232	0	fast	0.5	0.7	left	80	0.32814	0.32967	1.5342	0.86014	1.8417	5.8862	2611331
233	0	fast	0.6	0.3	left	80	0.39934	0.32898	1.2335	0.86014	1.6129	5.5857	2617218
234	1	fast	0.5	0.6	right	79	0.34122	0.32958	1.4338	0.86014	1.7552	5.7865	2622804
235	0	fast	0.3	0.6	left	80	0.42223	0.32834	1.2333	0.86014	1.6356	5.5873	2628590
236	0	fast	0.7	0.3	left	80	0.51881	0.34419	1.3326	0.86014	1.8312	5.6851	2634193
237	0	fast	0.5	0.5	left	80	0.54407	0.34502	1.333	0.86014	1.8574	5.6859	2639879
238	1	fast	0.5	0.5	right	79	0.4101	0.3453	1.3333	0.86014	1.7233	5.6856	2645565
239	0	fast	0.3	0.7	left	80	0.34677	0.34529	1.334	0.86014	1.6602	5.6859	2651251
240	1	fast	0.5	0.4	right	79	0.3832	0.34524	1.2337	0.86014	1.5969	5.5862	2656938
241	0	fast	0.7	0.6	left	80	0.34547	0.3454	1.6339	0.86014	1.9597	5.9869	2662524
242	0	fast	0.4	0.6	left	80	0.48793	0.34491	1.3328	0.86014	1.8003	5.6858	2668510
243	1	fast	0.6	0.7	right	79	0.33777	0.34462	1.6333	0.86014	1.951	5.9865	2674196
244	0	fast	0.6	0.7	left	80	0.39797	0.34409	1.6314	0.86014	2.0096	5.9846	2680183
245	0	fast	0.3	0.7	left	80	0.38908	0.34585	1.3337	0.86014	1.7028	5.6867	2686169
246	1	fast	0.4	0.6	right	79	0.35212	0.34521	1.3335	0.86014	1.6661	5.6896	2691855
247	1	fast	0.5	0.4	right	79	0.35098	0.34137	1.2286	0.86014	1.562	5.5839	2697542
248	0	fast	0.6	0.6	left	80	0.4018	0.34407	1.5329	0.86014	1.9141	5.8888	2703128
249	1	fast	0.3	0.6	right	79	0.53647	0.34129	1.2272	0.86014	1.7456	5.5821	2709014
250	0	fast	0.4	0.5	left	80	0.35643	0.34523	1.2332	0.86014	1.5697	5.5869	2714600
251	1	fast	0.4	0.7	right	79	0.40757	0.34376	1.432	0.86014	1.8193	5.7846	2720186
252	0	fast	0.5	0.5	left	80	0.41622	0.34508	1.3334	0.86014	1.7297	5.6867	2725973
253	1	fast	0.7	0.5	right	79	0.39583	0.34498	1.5332	0.86014	1.9094	5.887	2731659
254	0	fast	0.4	0.4	left	80	0.38187	0.34398	1.1309	0.86014	1.4946	5.4856	2737545
255	0	fast	0.3	0.4	left	80	0.43617	0.34399	1.0322	0.86014	1.4478	5.3892	2743031
256	0	fast	0.4	0.5	left	80	0.35444	0.35766	1.2289	0.86014	1.5635	5.5861	2748434
257	0	fast	0.7	0.3	left	80	0.43632	0.35729	1.3296	0.86014	1.7459	5.6841	2754020
258	0	fast	0.6	0.5	left	80	0.38248	0.34232	1.4308	0.86014	1.7933	5.7845	2759690
259	0	fast	0.6	0.3	left	80	0.41181	0.34376	1.2327	0.86014	1.6244	5.586	2765476
260	1	fast	0.7	0.3	right	79	0.43022	0.36105	1.3303	0.86014	1.7427	5.6868	2771079
261	0	fast	0.4	0.4	left	80	0.42753	0.35975	1.1316	0.86014	1.5383	5.4841	2776765
262	0	fast	0.3	0.6	left	80	0.36144	0.34518	1.233	0.86014	1.5748	5.5868	2782234
263	1	fast	0.3	0.5	right	79	0.3935	0.36069	1.1313	0.86014	1.5054	5.4857	2787837
264	0	fast	0.7	0.4	left	80	0.3691	0.36121	1.4337	0.86014	1.7823	5.7883	2793323
265	0	fast	0.3	0.4	left	80	0.37375	0.359	1.0304	0.86014	1.3839	5.3839	2799110
266	0	fast	0.4	0.4	left	80	0.52257	0.36082	1.1323	0.86014	1.6343	5.486	2804496
267	0	fast	0.6	0.3	left	80	0.36086	0.36058	1.2324	0.86014	1.5734	5.5868	2809982
268	1	fast	0.5	0.6	right	79	0.43071	0.39249	1.4314	0.86014	1.842	5.7851	2815601
269	1	fast	0.6	0.4	right	79	0.51483	0.35997	1.3322	0.86014	1.8265	5.6842	2821354
270	0	fast	0.5	0.7	left	80	0.38229	0.36216	1.533	0.86014	1.897	5.8873	2827040
271	1	fast	0.4	0.5	right	79	0.43641	0.36067	1.2321	0.86014	1.6477	5.5856	2832927
272	0	fast	0.3	0.7	left	80	0.48078	0.37189	1.3332	0.86014	1.7936	5.6871	2838513
273	1	fast	0.7	0.4	right	79	0.41561	0.36022	1.4325	0.86014	1.8299	5.7887	2844199
274	1	fast	0.4	0.4	right	79	0.34712	0.3581	1.1293	0.86014	1.4558	5.4852	2849986
275	0	fast	0.6	0.4	left	80	0.35507	0.35806	1.3304	0.86014	1.6649	5.6841	2855472
276	1	fast	0.6	0.5	right	79	0.44635	0.36046	1.4323	0.86014	1.8585	5.7853	2861158
277	0	fast	0.6	0.7	left	80	0.46768	0.36086	1.6324	0.86014	2.0794	5.9861	2866944
278	1	fast	0.7	0.5	right	79	0.49866	0.36103	1.5334	0.86014	2.0138	5.8895	2872930
279	1	fast	0.4	0.3	right	79	0.34555	0.35724	1.0285	0.86014	1.3533	5.3909	2878817
280	0	fast	0.5	0.5	left	80	0.36737	0.36871	1.3411	0.86014	1.6872	5.6952	2884219
