trial_number	fast_or_slow	fix_duration	isi_duration	left_or_right	keypressed	RT	fix_onset_time	fixation_time	go_time	target_duration	response_time	correct	pd_parser_sample
1	fast	0.5	0.6	right	79	0.40093	2157.3914	0.36821	1.4373	0.6239	1.8224	1	253291
2	fast	0.6	0.4	right	79	0.42653	2164.4861	0.32681	1.3295	0.6239	1.7412	1	260344
3	fast	0.6	0.4	left	80	0.30275	2171.4704	0.32909	1.3325	0.6239	1.6167	1	267331
4	fast	0.6	0.3	right	79	0.3589	2178.454	0.33334	1.2366	0.6239	1.5773	1	274317
5	fast	0.6	0.7	right	79	0.37821	2185.3428	0.33057	1.6346	0.6239	1.9968	1	281204
6	fast	0.3	0.6	left	80	0.42721	2192.6349	0.32438	1.2285	0.6239	1.6379	1	288490
7	fast	0.4	0.4	right	79	0.41847	2199.5155	0.33134	1.1341	0.6239	1.5348	1	295377
8	fast	0.7	0.5	right	79	0.36528	2206.3027	0.3305	1.5335	0.6239	1.8815	1	302163
9	fast	0.4	0.7	left	80	0.42055	2213.4892	0.33069	1.4357	0.6239	1.8368	1	309350
10	fast	0.3	0.5	left	80	0.48381	2220.5753	0.33115	1.134	0.6239	1.5994	1	316436
11	fast	0.7	0.5	left	80	0.40781	2227.3628	0.32975	1.5343	0.6239	1.9251	1	323223
12	fast	0.6	0.5	right	79	0.40409	2234.5508	0.32944	1.4322	0.6239	1.8185	1	330410
13	fast	0.4	0.3	left	80	0.39795	2241.6349	0.33125	1.0347	0.6239	1.4145	1	337496
14	fast	0.4	0.3	left	80	0.41307	2248.3212	0.33141	1.0353	0.6239	1.4298	1	344183
15	fast	0.7	0.5	right	79	0.30939	2255.0077	0.33233	1.5339	0.6239	1.8265	1	350869
16	fast	0.3	0.6	right	79	0.39609	2262.1945	0.33164	1.2353	0.6239	1.6122	1	358056
17	fast	0.3	0.7	left	80	0.37968	2269.0803	0.33271	1.335	0.6239	1.6962	1	364942
18	fast	0.6	0.5	right	79	0.34275	2276.0668	0.33301	1.4363	0.6239	1.7601	1	371928
19	fast	0.7	0.7	left	80	0.32011	2283.1572	0.32951	1.7329	0.6239	2.0347	1	379015
20	fast	0.4	0.6	right	79	0.35024	2290.5417	0.33203	1.3355	0.6239	1.6662	1	386402
21	fast	0.4	0.3	left	80	0.40202	2297.5276	0.33207	1.0356	0.6239	1.4189	1	393388
22	fast	0.3	0.4	left	80	0.44727	2304.2144	0.33207	1.0359	0.6239	1.4651	1	400075
23	fast	0.7	0.4	right	79	0.3617	2310.9021	0.33088	1.4352	0.6239	1.7778	1	406761
24	fast	0.7	0.4	right	79	0.41567	2317.9881	0.33167	1.4348	0.6239	1.8332	1	413848
25	fast	0.3	0.6	right	79	0.39452	2325.0756	0.33105	1.2338	0.6239	1.6097	1	420934
26	fast	0.7	0.5	left	80	0.34	2331.9607	0.33157	1.5373	0.6239	1.8566	1	427821
27	fast	0.3	0.4	right	79	0.31795	2339.1475	0.33255	1.0355	0.6239	1.3352	1	435007
28	fast	0.3	0.7	right	79	0.36362	2345.8349	0.33063	1.3355	0.6239	1.6804	1	441694
29	fast	0.5	0.3	right	79	0.39573	2352.822	0.33091	1.1345	0.6239	1.5115	1	448680
30	fast	0.7	0.6	left	80	0.42438	2359.608	0.33192	1.6348	0.6239	2.0405	1	455467
31	fast	0.3	0.5	left	80	0.42198	2366.8944	0.3318	1.1349	0.6239	1.5386	1	462753
32	fast	0.7	0.4	right	79	0.33729	2373.6867	0.34234	1.4301	0.6239	1.7489	1	469557
33	fast	0.5	0.5	right	79	0.45166	2380.7686	0.34778	1.3341	0.6239	1.7675	1	476643
34	fast	0.5	0.3	right	79	0.37404	2387.7546	0.34789	1.1329	0.6239	1.4905	1	483630
35	fast	0.3	0.6	right	79	0.40432	2394.5415	0.34798	1.2328	0.6239	1.6205	1	490416
36	fast	0.3	0.3	right	79	0.41815	2401.4282	0.34794	0.93476	0.6239	1.3346	1	497302
37	fast	0.3	0.7	right	79	0.33432	2408.0152	0.34661	1.334	0.6239	1.6493	1	503889
38	fast	0.6	0.6	right	79	0.39302	2415.0006	0.34872	1.5354	0.6239	1.9097	1	510875
39	fast	0.5	0.4	left	80	0.34095	2422.1875	0.34863	1.2352	0.6239	1.5573	1	518062
40	fast	0.3	0.4	right	79	0.41784	2429.0745	0.3477	1.035	0.6239	1.4338	1	524948
41	fast	0.7	0.6	right	79	0.35816	2435.7628	0.34599	1.6331	0.6239	1.9723	1	531635
42	fast	0.7	0.7	right	79	0.34109	2443.0474	0.34812	1.7349	0.6239	2.0575	1	538922
43	fast	0.6	0.5	left	80	0.38657	2450.4344	0.34825	1.4349	0.6239	1.8031	1	546308
44	fast	0.7	0.4	right	79	0.32982	2457.5213	0.36693	1.4348	0.6239	1.7458	1	553412
45	fast	0.3	0.4	left	80	0.38084	2464.6103	0.36213	1.0326	0.6239	1.3949	1	560498
46	fast	0.3	0.3	left	80	0.46419	2471.2949	0.34745	0.93407	0.6239	1.3791	1	567168
47	fast	0.6	0.6	left	80	0.38279	2477.8806	0.34849	1.5335	0.6239	1.8998	1	573754
48	fast	0.7	0.3	right	79	0.31103	2485.0685	0.34767	1.3322	0.6239	1.6272	1	580941
49	fast	0.3	0.7	right	80	0.28681	2492.0577	0.34475	1.3317	0.6239	1.5998	0	587927
50	fast	0.3	0.7	left	80	0.41366	2499.042	0.34676	1.3322	0.6239	1.7281	1	594914
51	fast	0.5	0.3	left	80	0.46938	2506.0272	0.34917	1.1351	0.6239	1.5854	1	601900
52	fast	0.7	0.6	left	80	0.39005	2512.8138	0.3486	1.6356	0.6239	2.0066	1	608687
53	fast	0.5	0.3	right	79	0.39352	2520.1013	0.34719	1.1351	0.6239	1.51	1	615973
54	fast	0.3	0.6	left	80	0.3801	2526.8915	0.36028	1.2302	0.6239	1.5914	1	622777
55	fast	0.3	0.6	left	80	0.43779	2533.7745	0.34713	1.2343	0.6239	1.6528	1	629646
56	fast	0.6	0.7	left	80	0.41938	2540.6597	0.34865	1.6334	0.6239	2.0366	1	636533
57	fast	0.6	0.7	left	80	0.38016	2547.9479	0.34753	1.6345	0.6239	1.9961	1	643820
58	fast	0.7	0.4	left	80	0.3996	2555.2348	0.34702	1.434	0.6239	1.8146	1	651106
59	fast	0.6	0.3	left	80	0.39067	2562.3206	0.34809	1.237	0.6239	1.6062	1	658193
60	fast	0.3	0.6	right	79	0.3126	2569.2074	0.36458	1.2353	0.6239	1.5292	1	665096
61	fast	0.4	0.7	right	79	0.35639	2576.0949	0.36341	1.4342	0.6239	1.7719	1	671983
62	fast	0.7	0.4	left	80	0.38738	2583.1838	0.36226	1.4304	0.6239	1.8019	1	679069
63	fast	0.3	0.6	left	80	0.40268	2590.2695	0.3622	1.2329	0.6239	1.6166	1	686155
64	fast	0.7	0.3	right	79	0.3742	2597.1547	0.36415	1.3344	0.6239	1.6899	1	693042
65	fast	0.7	0.4	left	80	0.41757	2604.1417	0.36377	1.4342	0.6239	1.8327	1	700029
66	fast	0.4	0.6	right	79	0.34857	2611.2277	0.36439	1.334	0.6239	1.664	1	707115
67	fast	0.6	0.7	right	79	0.41093	2618.2135	0.36564	1.6357	0.6239	2.0271	1	714102
68	fast	0.5	0.5	left	80	0.42214	2625.5013	0.3642	1.3343	0.6239	1.7379	1	721388
69	fast	0.6	0.3	left	80	0.41852	2632.4883	0.3645	1.2343	0.6239	1.6341	1	728375
70	fast	0.6	0.3	left	80	0.44558	2639.3812	0.35769	1.2274	0.6239	1.6547	1	735261
71	fast	0.3	0.6	left	80	0.35897	2646.2641	0.36076	1.2293	0.6239	1.5723	1	742148
72	fast	0.6	0.3	left	80	0.44083	2653.1493	0.36211	1.2329	0.6239	1.6544	1	749034
73	fast	0.4	0.3	left	80	0.39417	2660.0345	0.36366	1.0342	0.6239	1.4102	1	755921
74	fast	0.4	0.4	left	80	0.41015	2666.7218	0.36332	1.1335	0.6239	1.525	1	762607
75	fast	0.7	0.5	right	79	0.3114	2673.5079	0.36412	1.5339	0.6239	1.8266	1	769394
76	slow	0.5	0.4	right	79	0.50269	2794.07	0.39223	1.2289	1.6637	1.713	1	889982
77	slow	0.6	0.5	right	79	0.32617	2800.9505	0.31397	1.4335	1.6637	1.7415	1	896785
78	slow	0.5	0.6	right	79	0.31916	2808.0359	0.3159	1.4381	1.6637	1.7374	1	903872
79	slow	0.4	0.5	right	79	0.3997	2815.1244	0.33035	1.2325	1.6637	1.6146	1	910975
80	slow	0.4	0.7	left	80	0.46793	2822.0124	0.32941	1.4341	1.6637	1.8818	1	917861
81	slow	0.7	0.3	left	80	0.31344	2829.0966	0.33184	1.3365	1.6637	1.6333	1	924948
82	slow	0.6	0.7	left	80	0.38275	2836.0867	0.32811	1.6313	1.6637	1.9953	1	931934
83	slow	0.6	0.5	right	79	0.42095	2843.3696	0.33176	1.4355	1.6637	1.8383	1	939221
84	slow	0.3	0.3	right	79	0.38085	2850.4574	0.33068	0.93314	1.6637	1.2956	1	946308
85	slow	0.4	0.4	left	80	0.39183	2857.0449	0.32992	1.1355	1.6637	1.5074	1	952894
86	slow	0.4	0.7	right	79	0.27783	2863.8311	0.3303	1.4338	1.6637	1.6936	1	959680
87	slow	0.4	0.5	left	80	0.3976	2870.9176	0.33035	1.231	1.6637	1.6136	1	966767
88	slow	0.6	0.7	left	80	0.39193	2877.8041	0.33181	1.6336	1.6637	2.0068	1	973653
89	slow	0.3	0.4	right	79	0.3589	2885.092	0.32979	1.0333	1.6637	1.3739	1	980940
90	slow	0.5	0.3	left	80	0.40178	2891.7777	0.3301	1.1335	1.6637	1.517	1	987626
91	slow	0.4	0.6	right	79	0.42416	2898.5636	0.33041	1.334	1.6637	1.7403	1	994413
92	slow	0.3	0.4	right	79	0.42506	2905.5505	0.33137	1.034	1.6637	1.4414	1	1001399
93	slow	0.4	0.3	left	80	0.37818	2912.2374	0.32976	1.0317	1.6637	1.3942	1	1008086
94	slow	0.4	0.5	right	79	0.3821	2918.9241	0.33015	1.234	1.6637	1.5975	1	1014772
95	slow	0.4	0.5	left	80	0.31429	2925.8105	0.33049	1.2335	1.6637	1.5295	1	1021659
96	slow	0.3	0.5	left	80	0.46352	2932.6965	0.33124	1.1341	1.6637	1.5793	1	1028545
97	slow	0.3	0.6	right	79	0.34619	2939.4833	0.33033	1.2335	1.6637	1.5615	1	1035332
98	slow	0.5	0.7	left	80	0.42289	2946.3717	0.32891	1.5327	1.6637	1.9359	1	1042218
99	slow	0.5	0.6	right	79	0.28341	2953.5558	0.33187	1.4348	1.6637	1.7004	1	1049405
100	slow	0.5	0.7	left	80	0.355	2960.6436	0.33078	1.5346	1.6637	1.8713	1	1056491
101	slow	0.5	0.7	left	80	0.40535	2967.8308	0.33011	1.5352	1.6637	1.9205	1	1063678
102	slow	0.4	0.7	right	79	0.30733	2975.0171	0.33014	1.4338	1.6637	1.7232	1	1070865
103	slow	0.7	0.5	right	79	0.35224	2982.104	0.33043	1.5331	1.6637	1.8673	1	1077951
104	slow	0.4	0.7	left	80	0.39598	2989.2924	0.34571	1.4344	1.6637	1.8095	1	1085154
105	slow	0.5	0.7	right	79	0.43257	2996.377	0.34712	1.5363	1.6637	1.9489	1	1092241
106	slow	0.3	0.7	left	80	0.33181	3003.5701	0.34123	1.3276	1.6637	1.6412	1	1099428
107	slow	0.7	0.7	right	79	0.37818	3010.5507	0.34666	1.7339	1.6637	2.0942	1	1106414
108	slow	0.5	0.4	left	80	0.33565	3017.9378	0.34726	1.2313	1.6637	1.5512	1	1113801
109	slow	0.3	0.5	left	80	0.42867	3024.8244	0.34697	1.1334	1.6637	1.5445	1	1120687
110	slow	0.4	0.6	right	79	0.35563	3031.6113	0.34713	1.3336	1.6637	1.6706	1	1127474
111	slow	0.6	0.7	right	79	0.31157	3038.5976	0.34736	1.6345	1.6637	1.9274	1	1134460
112	slow	0.4	0.5	right	79	0.41313	3045.8846	0.34905	1.2325	1.6637	1.6279	1	1141747
113	slow	0.6	0.3	left	80	0.39219	3052.7709	0.34714	1.234	1.6637	1.6079	1	1148634
114	slow	0.4	0.3	right	79	0.44929	3059.6579	0.34643	1.0338	1.6637	1.465	1	1155520
115	slow	0.6	0.7	right	79	0.39241	3066.3477	0.34332	1.6306	1.6637	2.0047	1	1162206
116	slow	0.4	0.4	right	79	0.38114	3073.6312	0.34682	1.1307	1.6637	1.4963	1	1169493
117	slow	0.4	0.5	left	80	0.34703	3080.4174	0.34746	1.2333	1.6637	1.5628	1	1176280
118	slow	0.5	0.6	right	79	0.45644	3087.3043	0.34692	1.4333	1.6637	1.871	1	1183166
119	slow	0.5	0.3	left	80	0.4329	3094.3903	0.34706	1.136	1.6637	1.5487	1	1190253
120	slow	0.5	0.7	right	79	0.40125	3101.1779	0.34612	1.5346	1.6637	1.9154	1	1197039
121	slow	0.7	0.3	right	79	0.42825	3108.3638	0.34692	1.3338	1.6637	1.7442	1	1204226
122	slow	0.6	0.6	left	80	0.34204	3115.3514	0.34611	1.5332	1.6637	1.8572	1	1211212
123	slow	0.7	0.5	right	79	0.32099	3122.5413	0.3424	1.5286	1.6637	1.8319	1	1218399
124	slow	0.3	0.4	left	80	0.4149	3129.7239	0.34688	1.0337	1.6637	1.43	1	1225585
125	slow	0.4	0.7	right	79	0.41365	3136.4108	0.34706	1.4354	1.6637	1.8285	1	1232272
126	slow	0.6	0.4	right	79	0.39724	3143.4972	0.34717	1.3335	1.6637	1.7118	1	1239358
127	slow	0.5	0.4	right	79	0.39825	3150.4836	0.34671	1.2325	1.6637	1.615	1	1246345
128	slow	0.3	0.5	left	80	0.42427	3157.3726	0.3612	1.131	1.6637	1.5368	1	1253248
129	slow	0.7	0.4	left	80	0.40842	3164.1561	0.34764	1.435	1.6637	1.8245	1	1260018
130	slow	0.6	0.5	right	79	0.4298	3171.2439	0.34634	1.4352	1.6637	1.8446	1	1267104
131	slow	0.3	0.5	right	79	0.42719	3178.3308	0.34648	1.1349	1.6637	1.5409	1	1274191
132	slow	0.4	0.7	right	79	0.43033	3185.1186	0.36255	1.4318	1.6637	1.8433	1	1280994
133	slow	0.7	0.6	left	80	0.36116	3192.2034	0.36374	1.6353	1.6637	1.9772	1	1288081
134	slow	0.4	0.3	left	80	0.4502	3199.4913	0.36372	1.0328	1.6637	1.4647	1	1295367
135	slow	0.7	0.6	left	80	0.46289	3206.1778	0.36291	1.6324	1.6637	2.0768	1	1302054
136	slow	0.3	0.5	left	80	0.4575	3213.464	0.36335	1.1322	1.6637	1.5716	1	1309340
137	slow	0.7	0.4	right	79	0.45427	3220.2502	0.3643	1.4338	1.6637	1.8696	1	1316127
138	slow	0.7	0.3	right	79	0.41468	3227.3378	0.36253	1.3325	1.6637	1.7286	1	1323213
139	slow	0.5	0.6	right	79	0.35239	3234.324	0.36341	1.4339	1.6637	1.7676	1	1330200
140	slow	0.5	0.7	right	79	0.37093	3241.4117	0.36241	1.5306	1.6637	1.8862	1	1337286
141	slow	0.7	0.7	left	80	0.42336	3248.6012	0.35973	1.7301	1.6637	2.1356	1	1344473
142	slow	0.7	0.6	left	80	0.39669	3255.9858	0.36389	1.6316	1.6637	2.0098	1	1351860
143	slow	0.6	0.5	left	80	0.37806	3263.2713	0.36348	1.4336	1.6637	1.7937	1	1359146
144	slow	0.6	0.3	left	80	0.44495	3270.3602	0.36104	1.2318	1.6637	1.6578	1	1366233
145	slow	0.5	0.4	left	80	0.48388	3277.2457	0.36153	1.2331	1.6637	1.6984	1	1373120
146	slow	0.4	0.4	right	79	0.40181	3284.1325	0.36147	1.1326	1.6637	1.5154	1	1380006
147	slow	0.7	0.7	left	80	0.34731	3290.9187	0.36173	1.7322	1.6637	2.0607	1	1386792
148	slow	0.3	0.6	left	80	0.44239	3298.3046	0.36285	1.2332	1.6637	1.6574	1	1394179
149	slow	0.3	0.5	left	80	0.54407	3305.1935	0.36089	1.1322	1.6637	1.6554	1	n/a
150	slow	0.7	0.3	left	80	0.43972	3311.9763	0.36427	1.3346	1.6637	1.756	1	1407852
151	slow	0.7	0.4	right	79	0.48524	3549.0627	0.40703	1.4271	1.6637	1.8936	1	n/a
152	slow	0.5	0.3	left	80	0.40555	3556.1422	0.31401	1.1341	1.6637	1.5213	1	1651964
153	slow	0.3	0.4	right	79	0.38475	3562.9294	0.33028	1.0334	1.6637	1.4002	1	1658767
154	slow	0.5	0.4	right	80	0.38912	3569.616	0.33013	1.2339	1.6637	1.6051	0	1665453
155	slow	0.6	0.4	left	80	0.32375	3576.5036	0.32935	1.3318	1.6637	1.6375	1	1672340
156	slow	0.5	0.5	left	80	0.38335	3583.4886	0.33014	1.3332	1.6637	1.6986	1	1679326
157	slow	0.7	0.6	right	79	0.33682	3590.4753	0.33062	1.635	1.6637	1.9515	1	1686313
158	slow	0.4	0.5	right	79	0.3531	3597.7613	0.33139	1.2344	1.6637	1.5699	1	1693599
159	slow	0.5	0.6	left	80	0.37448	3604.6523	0.3269	1.4302	1.6637	1.787	1	1700486
160	slow	0.6	0.3	left	80	0.46013	3611.7364	0.32941	1.2341	1.6637	1.6755	1	1707572
161	slow	0.5	0.5	left	80	0.40166	3618.6237	0.32879	1.3334	1.6637	1.7149	1	1714459
162	slow	0.6	0.4	left	80	0.42153	3625.6084	0.33081	1.3343	1.6637	1.7385	1	1721445
163	slow	0.5	0.3	right	79	0.45876	3632.5972	0.3292	1.1323	1.6637	1.5733	1	1728432
164	slow	0.6	0.3	right	79	0.34289	3639.3837	0.32884	1.2318	1.6637	1.5568	1	1735218
165	slow	0.4	0.6	left	80	0.35807	3646.2698	0.3298	1.3342	1.6637	1.6715	1	1742105
166	slow	0.4	0.3	left	80	0.40759	3653.2549	0.33032	1.0333	1.6637	1.4231	1	1749091
167	slow	0.5	0.4	left	80	0.31883	3659.9424	0.3296	1.2349	1.6637	1.5336	1	1755778
168	slow	0.3	0.3	right	79	0.32438	3666.829	0.33013	0.93395	1.6637	1.238	1	1762664
169	slow	0.4	0.5	right	79	0.42332	3673.4148	0.33087	1.2337	1.6637	1.6394	1	1769251
170	slow	0.6	0.3	left	80	0.41794	3680.303	0.32939	1.2336	1.6637	1.6314	1	1776137
171	slow	0.6	0.3	left	80	0.49409	3687.1885	0.33026	1.2335	1.6637	1.7091	1	1783024
172	slow	0.5	0.4	right	79	0.33558	3694.0756	0.32925	1.2331	1.6637	1.5508	1	1789910
173	slow	0.7	0.4	left	80	0.4202	3700.9631	0.32878	1.4318	1.6637	1.8338	1	1796796
174	slow	0.4	0.3	right	79	0.37903	3708.0487	0.33018	1.0328	1.6637	1.3939	1	1803883
175	slow	0.6	0.4	right	79	0.35959	3714.7358	0.34526	1.3325	1.6637	1.6735	1	1810586
176	slow	0.7	0.7	left	80	0.42805	3721.7228	0.32916	1.732	1.6637	2.142	1	1817556
177	slow	0.5	0.4	right	79	0.3595	3729.1091	0.32896	1.2325	1.6637	1.5738	1	1824943
178	slow	0.5	0.4	left	80	0.38436	3735.9957	0.32927	1.2316	1.6637	1.5982	1	1831829
179	slow	0.5	0.6	left	80	0.46235	3742.8816	0.32982	1.435	1.6637	1.8772	1	1838716
180	slow	0.6	0.6	left	80	0.46693	3749.9685	0.34643	1.5348	1.6637	1.9811	1	1845819
181	slow	0.7	0.4	left	80	0.34364	3757.1546	0.34675	1.434	1.6637	1.76	1	1853005
182	slow	0.3	0.7	left	80	0.36199	3764.2434	0.34512	1.3315	1.6637	1.6754	1	1860092
183	slow	0.3	0.7	left	80	0.40294	3771.2293	0.34592	1.3339	1.6637	1.7165	1	1867079
184	slow	0.5	0.4	left	80	0.40322	3778.2152	0.34681	1.2333	1.6637	1.6186	1	1874065
185	slow	0.3	0.4	left	80	0.44279	3785.1031	0.34593	1.0332	1.6637	1.4557	1	1880952
186	slow	0.6	0.7	right	79	0.31765	3791.7885	0.34633	1.6337	1.6637	1.9323	1	1887638
187	slow	0.4	0.7	right	79	0.45731	3799.0758	0.34582	1.4328	1.6637	1.8718	1	1894925
188	slow	0.4	0.6	right	79	0.44895	3806.1629	0.34576	1.3321	1.6637	1.7622	1	1902011
189	slow	0.6	0.4	left	80	0.50066	3813.1487	0.34637	1.3325	1.6637	1.8155	1	1908998
190	slow	0.3	0.6	left	80	0.60559	3820.136	0.34534	1.2331	1.6637	1.8203	1	1915984
191	slow	0.5	0.3	right	79	0.42551	3827.0233	0.34477	1.1333	1.6637	1.5381	1	1922871
192	slow	0.7	0.6	left	80	0.39427	3833.8079	0.34726	1.6359	1.6637	2.0096	1	1929657
193	slow	0.3	0.3	left	80	0.39138	3841.096	0.3453	0.93239	1.6637	1.3055	1	1936944
194	slow	0.5	0.7	left	80	0.39249	3847.6836	0.34432	1.5333	1.6637	1.9058	1	1943530
195	slow	0.6	0.3	right	79	0.40363	3854.8708	0.36045	1.2321	1.6637	1.6164	1	1950734
196	slow	0.4	0.4	right	79	0.40016	3861.7593	0.35828	1.1281	1.6637	1.5102	1	1957620
197	slow	0.4	0.3	left	80	0.46752	3868.5419	0.34606	1.0318	1.6637	1.481	1	1964390
198	slow	0.5	0.5	right	79	0.38108	3875.2281	0.34669	1.3333	1.6637	1.6965	1	1971076
199	slow	0.5	0.6	right	79	0.36142	3882.2164	0.34477	1.4327	1.6637	1.7736	1	1978063
200	slow	0.6	0.5	left	80	0.61979	3889.3015	0.3461	1.4325	1.6637	2.0348	1	1985149
201	slow	0.3	0.3	right	79	0.46253	3896.3906	0.34424	0.92997	1.6637	1.3739	1	1992236
202	slow	0.7	0.7	right	79	0.45929	3902.9767	0.34372	1.7333	1.6637	2.172	1	1998822
203	slow	0.4	0.5	left	80	0.38828	3910.3621	0.34562	1.2325	1.6637	1.6032	1	2006209
204	slow	0.4	0.5	left	80	0.44872	3917.2499	0.34433	1.23	1.6637	1.6624	1	2013095
205	slow	0.5	0.7	right	79	0.45337	3924.1367	0.36083	1.5315	1.6637	1.9664	1	2019999
206	slow	0.7	0.6	left	80	0.41584	3931.3229	0.34476	1.6329	1.6637	2.0281	1	2027168
207	slow	0.6	0.4	left	80	0.46081	3938.6083	0.36322	1.3354	1.6637	1.7752	1	2034472
208	slow	0.4	0.4	right	79	0.58436	3945.5956	0.36243	1.1317	1.6637	1.6977	1	2041458
209	slow	0.6	0.6	left	80	0.42126	3952.3818	0.36271	1.5329	1.6637	1.9357	1	2048245
210	slow	0.6	0.6	right	79	0.39242	3959.5693	0.37799	1.5323	1.6637	1.9056	1	2055448
211	slow	0.3	0.3	right	79	0.47108	3966.7581	0.35997	0.93148	1.6637	1.3819	1	2062618
212	slow	0.6	0.6	right	79	0.91052	3973.342	0.36236	1.5307	1.6637	2.4255	1	2069204
213	slow	0.6	0.3	right	79	0.38271	3980.5301	0.3611	1.2326	1.6637	1.5949	1	2076391
214	slow	0.5	0.6	left	80	0.41875	3987.4154	0.36261	1.4332	1.6637	1.8335	1	2083278
215	slow	0.7	0.3	right	79	0.39717	3994.5031	0.36122	1.331	1.6637	1.7097	1	2090364
216	slow	0.7	0.4	left	80	0.35462	4001.4886	0.36265	1.4327	1.6637	1.7685	1	2097351
217	slow	0.3	0.4	right	79	0.36262	4008.5754	0.36199	1.0326	1.6637	1.3765	1	2104437
218	slow	0.5	0.5	right	79	0.46353	4015.2614	0.36248	1.3327	1.6637	1.7784	1	2111124
219	slow	0.4	0.6	left	80	0.42514	4022.2551	0.35569	1.326	1.6637	1.7329	1	2118110
220	slow	0.4	0.7	left	80	0.37513	4029.236	0.36157	1.4324	1.6637	1.7887	1	2125097
221	slow	0.5	0.3	left	80	0.41195	4036.3225	0.36109	1.1301	1.6637	1.5265	1	2132183
222	slow	0.7	0.5	left	80	0.35851	4043.1102	0.36058	1.53	1.6637	1.8702	1	2138970
223	slow	0.3	0.5	left	80	0.39553	4050.2951	0.36291	1.1307	1.6637	1.5107	1	2146156
224	slow	0.5	0.5	left	80	0.38152	4057.0838	0.3598	1.3301	1.6637	1.693	1	2152943
225	slow	0.7	0.7	left	80	0.43982	4064.069	0.36238	1.7324	1.6637	2.1535	1	2159929
226	fast	0.4	0.7	right	79	0.48367	4128.466	0.39532	1.4339	0.6239	1.897	1	2224359
227	fast	0.3	0.4	right	79	0.33155	4135.5513	0.33013	1.0328	0.6239	1.3464	1	2231379
228	fast	0.5	0.5	right	79	0.32685	4142.2404	0.32663	1.3298	0.6239	1.6396	1	2238065
229	fast	0.6	0.7	right	79	0.33585	4149.2255	0.32901	1.6321	0.6239	1.9501	1	2245052
230	fast	0.4	0.5	left	79	0.30911	4156.5123	0.32832	1.2313	0.6239	1.5227	0	2252338
231	fast	0.6	0.6	right	79	0.36046	4163.3986	0.32895	1.5319	0.6239	1.8744	1	2259225
232	fast	0.6	0.3	right	79	0.40003	4170.5848	0.32987	1.2651	0.6239	1.6501	1	2266411
233	fast	0.6	0.3	left	80	0.40129	4177.5073	0.32652	1.2299	0.6239	1.6131	1	2273331
234	fast	0.3	0.3	left	80	0.41818	4184.3915	0.32927	0.9325	0.6239	1.3329	1	2280218
235	fast	0.6	0.5	left	80	0.36562	4190.9789	0.32878	1.4326	0.6239	1.7799	1	2286804
236	fast	0.4	0.5	right	79	0.3943	4198.066	0.32789	1.2306	0.6239	1.6073	1	2293890
237	fast	0.7	0.3	right	79	0.4129	4204.9534	0.32728	1.3323	0.6239	1.7249	1	2300777
238	fast	0.6	0.6	left	80	0.39577	4211.9381	0.32968	1.532	0.6239	1.9091	1	2307764
239	fast	0.6	0.5	left	80	0.39273	4219.1242	0.32958	1.4319	0.6239	1.8097	1	2314950
240	fast	0.7	0.7	right	79	0.40506	4226.2135	0.32678	1.7299	0.6239	2.1171	1	2322037
241	fast	0.7	0.5	right	79	0.43505	4233.5984	0.32887	1.5316	0.6239	1.9487	1	2329423
242	fast	0.5	0.4	right	79	0.37061	4240.785	0.34634	1.2346	0.6239	1.5853	1	2336627
243	fast	0.6	0.3	right	79	0.4428	4247.6726	0.32855	1.2335	0.6239	1.6553	1	2343497
244	fast	0.5	0.7	left	80	0.44215	4254.5581	0.32904	1.5332	0.6239	1.9573	1	2350383
245	fast	0.5	0.4	left	80	0.38791	4261.7461	0.34556	1.2303	0.6239	1.6004	1	2357586
246	fast	0.3	0.6	right	79	0.35022	4268.6341	0.34372	1.2299	0.6239	1.5613	1	2364473
247	fast	0.7	0.7	left	80	0.34064	4275.518	0.33001	1.7325	0.6239	2.055	1	2371343
248	fast	0.6	0.6	right	79	0.43002	4282.9058	0.32868	1.5337	0.6239	1.9436	1	2378729
249	fast	0.5	0.5	left	80	0.50701	4290.0922	0.3286	1.3322	0.6239	1.8212	1	2385916
250	fast	0.3	0.4	right	79	0.41481	4297.0791	0.32947	1.0319	0.6239	1.4276	1	2392902
251	fast	0.3	0.4	right	79	0.34054	4303.7654	0.36212	1.032	0.6239	1.3545	1	2399622
252	fast	0.4	0.3	left	80	0.41294	4310.4521	0.32847	1.0341	0.6239	1.4266	1	2406275
253	fast	0.3	0.7	left	80	0.3652	4317.1386	0.34536	1.3328	0.6239	1.6776	1	2412978
254	fast	0.7	0.6	left	80	0.37412	4324.1267	0.34357	1.6308	0.6239	1.9871	1	2419965
255	fast	0.5	0.6	right	79	0.42447	4331.4127	0.34477	1.4307	0.6239	1.8372	1	2427252
256	fast	0.3	0.7	left	80	0.37466	4338.4988	0.34527	1.3305	0.6239	1.6874	1	2434338
257	fast	0.5	0.3	right	79	0.42766	4345.4849	0.34618	1.1318	0.6239	1.5417	1	2441325
258	fast	0.3	0.6	left	80	0.38731	4352.2728	0.34511	1.2305	0.6239	1.5996	1	2448111
259	fast	0.4	0.5	left	80	0.41213	4359.1583	0.34572	1.2333	0.6239	1.6256	1	2454998
260	fast	0.4	0.7	right	79	0.41595	4366.0448	0.34552	1.4325	0.6239	1.8305	1	2461884
261	fast	0.4	0.6	left	80	0.42784	4373.1327	0.34456	1.331	0.6239	1.7411	1	2468971
262	fast	0.5	0.7	left	80	0.43454	4380.1192	0.34411	1.531	0.6239	1.9473	1	2475957
263	fast	0.7	0.3	right	79	0.36624	4387.3083	0.34223	1.3305	0.6239	1.6765	1	2483144
264	fast	0.4	0.5	right	79	0.42088	4394.2918	0.34588	1.2298	0.6239	1.6355	1	2490130
265	fast	0.5	0.4	left	80	0.41768	4401.1801	0.34409	1.2311	0.6239	1.6308	1	2497017
266	fast	0.5	0.3	right	79	0.37451	4408.0666	0.34348	1.1303	0.6239	1.4866	1	2503903
267	fast	0.3	0.5	right	79	0.4574	4414.8523	0.34466	1.1304	0.6239	1.5699	1	2510690
268	fast	0.7	0.4	left	80	0.32983	4421.6381	0.34603	1.4319	0.6239	1.744	1	2517476
269	fast	0.7	0.7	right	79	0.39454	4428.7264	0.34343	1.7302	0.6239	2.1067	1	2524563
270	fast	0.4	0.7	right	79	0.42298	4436.1125	0.34496	1.4313	0.6239	1.8361	1	2531949
271	fast	0.4	0.6	left	80	0.38025	4443.1997	0.34355	1.3308	0.6239	1.6926	1	2539036
272	fast	0.5	0.4	left	80	0.38296	4450.1884	0.34263	1.2292	0.6239	1.5933	1	2546023
273	fast	0.6	0.5	left	80	0.39437	4457.0725	0.34509	1.4304	0.6239	1.8068	1	2552909
274	fast	0.6	0.6	right	79	0.36169	4464.159	0.34511	1.5312	0.6239	1.8751	1	2559996
275	fast	0.5	0.6	right	79	0.48262	4471.3466	0.34346	1.4317	0.6239	1.8937	1	2567182
276	fast	0.7	0.3	left	80	0.38937	4478.4321	0.34479	1.3333	0.6239	1.7023	1	2574269
277	fast	0.4	0.4	right	79	0.36279	4485.4198	0.34429	1.1324	0.6239	1.4747	1	2581255
278	fast	0.7	0.6	left	80	0.43229	4492.206	0.34473	1.6313	0.6239	2.0483	1	2588042
279	fast	0.7	0.5	left	80	0.41363	4499.4958	0.35841	1.5299	0.6239	1.9233	1	2595345
280	fast	0.3	0.7	left	80	0.43311	4506.6801	0.36047	1.3314	0.6239	1.7439	1	2602532
281	fast	0.6	0.5	right	79	0.46117	4513.665	0.34529	1.4321	0.6239	1.8754	1	2609502
282	fast	0.7	0.3	right	79	0.46725	4520.7533	0.36032	1.3308	0.6239	1.7798	1	2616605
283	fast	0.3	0.7	left	80	0.43714	4527.7401	0.36091	1.3308	0.6239	1.7494	1	2623591
284	fast	0.4	0.5	left	80	0.36491	4534.7268	0.36025	1.2294	0.6239	1.576	1	2630578
285	fast	0.6	0.5	right	79	0.36764	4541.6124	0.36119	1.4313	0.6239	1.7813	1	2637464
286	fast	0.6	0.6	right	79	0.38708	4548.7002	0.35991	1.5304	0.6239	1.8991	1	2644551
287	fast	0.5	0.4	right	79	0.38576	4555.8871	0.36067	1.2292	0.6239	1.5968	1	2651738
288	fast	0.5	0.6	right	79	0.39309	4562.7749	0.35895	1.4291	0.6239	1.8041	1	2658624
289	fast	0.6	0.5	left	80	0.56857	4569.8609	0.35943	1.43	0.6239	1.9799	1	2665711
290	fast	0.3	0.7	right	79	0.44146	4576.9472	0.3775	1.332	0.6239	1.7533	1	2672814
291	fast	0.7	0.3	right	79	0.41639	4583.9326	0.36152	1.332	0.6239	1.7302	1	2679784
292	fast	0.4	0.7	right	79	0.38373	4590.9212	0.35992	1.4298	0.6239	1.7948	1	2686770
293	fast	0.4	0.6	left	80	0.46937	4598.0071	0.36053	1.3303	0.6239	1.7813	1	2693857
294	fast	0.3	0.7	right	79	0.38874	4604.9942	0.35999	1.33	0.6239	1.7003	1	2700843
295	fast	0.7	0.7	right	79	0.42157	4611.9814	0.359	1.7301	0.6239	2.1334	1	2707830
296	fast	0.4	0.3	right	79	0.41063	4619.3692	0.35877	1.028	0.6239	1.4205	1	2715217
297	fast	0.4	0.5	right	79	0.49744	4626.0559	0.37444	1.2282	0.6239	1.7077	1	2721920
298	fast	0.3	0.4	right	79	0.40477	4632.9412	0.3595	1.0288	0.6239	1.4147	1	2728789
299	fast	0.7	0.5	right	79	0.34264	4639.6301	0.37403	1.5281	0.6239	1.8522	1	2735493
300	fast	0.5	0.6	left	80	0.37811	4646.8145	0.35951	1.4316	0.6239	1.7886	1	2742662
