trial_number	correct	fast_or_slow	fix_duration	isi_duration	left_or_right	keypressed	RT	fixation_time	go_time	target_duration	response_time	trial_length	fix_onset_time	pd_parser_sample
1	1	fast	0.5	0.6	left	80	1.1721	0.36173	1.4324	1.4055	2.5872	6.3291	6.3291	76551
2	1	fast	0.6	0.4	right	79	1.0769	0.31819	1.3374	1.4055	2.3975	6.2347	12.5638	82838
3	1	fast	0.5	0.3	right	79	0.86656	0.31994	1.138	1.4055	1.9874	6.0328	18.5966	89074
4	1	fast	0.7	0.5	right	79	0.78578	0.32251	1.5285	1.4055	2.2952	6.4214	25.018	95111
5	1	fast	0.6	0.7	left	80	1.2	0.32154	1.6415	1.4055	2.8248	6.5392	31.5572	101531
6	1	fast	0.3	0.5	right	79	0.62383	0.33477	1.1371	1.4055	1.7464	6.0351	37.5923	108084
7	1	fast	0.3	0.6	right	79	0.8925	0.31884	1.2383	1.4055	2.1138	6.1365	43.7288	114104
8	1	fast	0.5	0.6	right	79	0.71187	0.33456	1.4378	1.4055	2.1327	6.3328	50.0616	120257
9	1	fast	0.7	0.5	right	79	0.9251	0.32157	1.5239	1.4055	2.4317	6.4186	56.4802	126577
10	1	fast	0.3	0.6	right	79	0.58906	0.32351	1.2261	1.4055	1.798	6.1209	62.6011	132997
11	1	fast	0.5	0.3	left	80	1.0552	0.32196	1.1241	1.4055	2.1623	6.0192	68.6203	139116
12	1	fast	0.7	0.5	left	80	1.3845	0.32188	1.5246	1.4055	2.8916	6.4217	75.042	145136
13	1	fast	0.4	0.7	left	80	1.2418	0.33655	1.4392	1.4055	2.6637	6.3351	81.3771	151573
14	1	fast	0.4	0.3	right	79	0.60559	0.33732	1.0243	1.4055	1.6119	5.9184	87.2955	157909
15	1	fast	0.3	0.6	right	79	0.62156	0.33872	1.2237	1.4055	1.8281	6.1187	93.4142	163829
16	1	fast	0.7	0.6	right	79	0.78354	0.34025	1.6262	1.4055	2.3922	6.5209	99.9351	169949
17	1	fast	0.5	0.7	right	79	0.94496	0.33884	1.5243	1.4055	2.4521	6.4197	106.3548	176469
18	1	fast	0.7	0.7	left	80	0.98678	0.3391	1.7253	1.4055	2.6946	6.62	112.9748	182889
19	1	fast	0.4	0.4	right	79	0.72564	0.3388	1.1241	1.4055	1.8324	6.019	118.9938	189509
20	1	fast	0.5	0.4	right	79	0.95944	0.33918	1.2265	1.4055	2.1659	6.1188	125.1126	195528
21	0	fast	0.4	0.4	left	80	1.4349	0.3396	1.1265	1.4055	2.5436	6.0214	131.134	201648
22	1	fast	0.3	0.6	left	80	1.0251	0.33758	1.2244	1.4055	2.2314	6.124	137.258	207668
23	1	fast	0.6	0.4	left	80	1.0941	0.33354	1.3355	1.4055	2.412	6.2302	143.4882	213788
24	1	fast	0.4	0.5	left	80	1.122	0.33924	1.2252	1.4055	2.3298	6.1203	149.6085	220024
25	1	fast	0.4	0.3	right	79	1.0886	0.33899	1.0252	1.4055	2.0962	5.9198	155.5283	226144
26	1	fast	0.6	0.3	right	79	0.84686	0.3379	1.2237	1.4055	2.053	6.1187	161.647	232064
27	1	fast	0.6	0.4	left	80	0.7957	0.33914	1.3257	1.4055	2.1031	6.2199	167.8669	238183
28	1	fast	0.7	0.3	left	80	1.0862	0.33891	1.3244	1.4055	2.3933	6.2199	174.0868	244403
29	1	fast	0.4	0.5	left	80	0.82542	0.33913	1.2266	1.4055	2.0323	6.1193	180.2061	250623
30	1	fast	0.6	0.4	left	80	0.98628	0.33813	1.3243	1.4055	2.2932	6.2195	186.4256	256743
31	1	fast	0.3	0.7	left	80	0.75574	0.3391	1.3249	1.4055	2.0631	6.2229	192.6485	262963
32	1	fast	0.4	0.7	left	80	0.83471	0.3357	1.4374	1.4055	2.2548	6.3327	198.9812	269182
33	1	fast	0.5	0.7	left	80	0.7954	0.3392	1.5259	1.4055	2.3032	6.4205	205.4017	275519
34	1	fast	0.6	0.7	left	80	0.78306	0.33834	1.6243	1.4055	2.3896	6.5193	211.921	281939
35	1	fast	0.6	0.5	left	80	0.8069	0.35512	1.424	1.4055	2.2135	6.3192	218.2402	288475
36	1	fast	0.3	0.7	right	79	0.89474	0.33956	1.3244	1.4055	2.2015	6.2195	224.4597	294779
37	1	fast	0.7	0.6	left	80	0.73884	0.33873	1.6244	1.4055	2.3454	6.5196	230.9793	300999
38	1	fast	0.6	0.7	left	80	0.98217	0.33917	1.6248	1.4055	2.5896	6.5203	237.4996	307518
39	1	fast	0.4	0.4	left	80	0.75233	0.33876	1.1249	1.4055	1.8594	6.0198	243.5194	314038
40	1	fast	0.7	0.7	right	79	0.63403	0.33842	1.7254	1.4055	2.3418	6.6205	250.1399	320058
41	1	fast	0.5	0.6	left	80	0.8264	0.33764	1.4234	1.4055	2.2324	6.3214	256.4613	326678
42	1	fast	0.7	0.3	right	79	0.82374	0.35306	1.3392	1.4055	2.1456	6.2349	262.6962	333015
43	1	fast	0.6	0.3	left	80	0.77544	0.35439	1.2396	1.4055	1.9974	6.136	268.8322	339251
44	1	fast	0.6	0.7	left	80	0.94499	0.35473	1.6409	1.4055	2.568	6.5354	275.3676	345388
45	1	fast	0.6	0.4	right	79	1.017	0.35498	1.3249	1.4055	2.3244	6.2205	281.5881	351924
46	1	fast	0.5	0.5	left	80	0.78276	0.35395	1.3378	1.4055	2.1052	6.2356	287.8237	358144
47	1	fast	0.3	0.3	left	80	0.86567	0.35541	0.92407	1.4055	1.7722	5.8197	293.6434	364381
48	1	fast	0.3	0.7	left	80	0.85391	0.35396	1.3242	1.4055	2.1602	6.2198	299.8632	370200
49	1	fast	0.3	0.7	right	79	0.86198	0.35463	1.3399	1.4055	2.1836	6.235	306.0982	376420
50	1	fast	0.3	0.7	right	79	0.80653	0.35502	1.3248	1.4055	2.1134	6.2431	312.3413	382657
51	1	fast	0.3	0.3	right	79	0.85968	0.34878	0.93478	1.4055	1.7767	5.8303	318.1716	388893
52	1	fast	0.5	0.6	right	79	1.3181	0.35473	1.4247	1.4055	2.7247	6.3199	324.4915	394729
53	1	fast	0.4	0.7	left	80	0.99738	0.3546	1.4405	1.4055	2.4202	6.3361	330.8276	401049
54	1	fast	0.3	0.6	left	80	1.0341	0.35407	1.3415	1.4055	2.3623	6.2418	337.0694	407386
55	1	fast	0.4	0.3	right	79	0.71948	0.34915	1.0357	1.4055	1.7375	5.9336	343.003	413622
56	1	fast	0.5	0.5	left	80	1.0952	0.35144	1.3403	1.4055	2.4158	6.234	349.237	419559
57	1	fast	0.7	0.5	right	79	0.83059	0.35464	1.5406	1.4055	2.3535	6.4364	355.6734	425795
58	1	fast	0.3	0.6	left	80	0.77046	0.35388	1.2397	1.4055	1.9924	6.1354	361.8088	432232
59	1	fast	0.3	0.4	right	79	0.76374	0.35453	1.0414	1.4055	1.7874	5.9375	367.7463	438368
60	1	fast	0.4	0.7	left	80	0.69608	0.35362	1.4385	1.4055	2.1167	6.337	374.0833	444305
61	1	fast	0.5	0.4	right	79	0.6237	0.35281	1.239	1.4055	1.8443	6.1344	380.2177	450641
62	1	fast	0.3	0.3	left	80	0.77484	0.38781	0.9403	1.4055	1.6973	5.8361	386.0538	456811
63	1	fast	0.3	0.4	left	80	1.1919	0.35424	1.0408	1.4055	2.2144	5.9364	391.9902	462614
64	1	fast	0.3	0.6	left	80	1.0665	0.38672	1.2401	1.4055	2.2884	6.1354	398.1256	468584
65	1	fast	0.5	0.4	left	80	1.0298	0.35518	1.224	1.4055	2.2358	6.1201	404.2457	474687
66	1	fast	0.7	0.5	left	80	1.0147	0.37136	1.5428	1.4055	2.538	6.4374	410.6831	480823
67	1	fast	0.7	0.6	left	80	0.86539	0.37038	1.6397	1.4055	2.4871	6.5355	417.2186	487260
68	1	fast	0.5	0.7	right	79	0.80382	0.37056	1.5412	1.4055	2.3273	6.4362	423.6548	493796
69	1	fast	0.5	0.7	right	79	0.78324	0.37169	1.542	1.4055	2.3049	6.4356	430.0904	500233
70	1	fast	0.7	0.4	left	80	1.2081	0.37206	1.4242	1.4055	2.6141	6.3187	436.4091	506670
71	1	fast	0.7	0.7	right	79	1.2824	0.37893	1.7334	1.4055	2.9978	6.6286	443.0377	564349
72	1	fast	0.6	0.7	right	79	0.86955	0.32062	1.6405	1.4055	2.4915	6.5349	449.5726	570919
73	1	fast	0.6	0.7	right	79	0.88099	0.32209	1.6247	1.4055	2.4875	6.5196	456.0922	577455
74	1	fast	0.6	0.5	right	79	0.65785	0.32266	1.4255	1.4055	2.0656	6.3207	462.4129	583975
75	1	fast	0.4	0.4	left	80	0.89012	0.33771	1.1238	1.4055	1.9964	6.0193	468.4322	590312
76	1	fast	0.5	0.5	right	79	0.7394	0.32187	1.3233	1.4055	2.0457	6.2194	474.6516	596315
77	1	fast	0.7	0.5	left	80	0.79676	0.32139	1.5258	1.4055	2.3035	6.42	481.0716	602535
78	1	fast	0.3	0.3	left	80	1.0681	0.32091	0.92572	1.4055	1.9742	5.8194	486.891	608955
79	1	fast	0.5	0.5	right	79	0.69207	0.32148	1.3235	1.4055	1.9981	6.2194	493.1104	614774
80	1	fast	0.4	0.3	right	79	0.8363	0.32126	1.0242	1.4055	1.8431	5.92	499.0304	620994
81	1	fast	0.5	0.3	left	80	0.77372	0.32082	1.1235	1.4055	1.88	6.0196	505.05	626914
82	1	fast	0.7	0.4	right	79	0.72556	0.33783	1.4234	1.4055	2.1317	6.3194	511.3694	632950
83	1	fast	0.7	0.5	left	80	0.71312	0.32096	1.5253	1.4055	2.219	6.419	517.7884	639253
84	1	fast	0.3	0.6	left	80	1.1999	0.33864	1.2233	1.4055	2.4062	6.1196	523.908	645690
85	1	fast	0.7	0.5	right	79	0.66853	0.33806	1.5236	1.4055	2.175	6.4199	530.3279	651810
86	1	fast	0.3	0.4	right	79	0.80974	0.33836	1.0249	1.4055	1.815	5.9188	536.2467	658230
87	1	fast	0.3	0.5	right	79	0.81397	0.33865	1.1245	1.4055	1.9213	6.0209	542.2676	664149
88	1	fast	0.4	0.7	right	79	0.70695	0.3377	1.4412	1.4055	2.1287	6.3354	548.603	670169
89	1	fast	0.7	0.6	left	80	0.96288	0.33788	1.625	1.4055	2.5701	6.5208	555.1238	676506
90	1	fast	0.6	0.7	right	79	0.65198	0.33672	1.6401	1.4055	2.2744	6.5383	561.6621	683026
91	1	fast	0.6	0.4	right	79	0.77997	0.33493	1.3383	1.4055	2.1012	6.2345	567.8966	689562
92	1	fast	0.5	0.4	left	80	1.3106	0.337	1.2386	1.4055	2.532	6.1353	574.0319	695799
93	1	fast	0.5	0.7	right	79	0.63322	0.33779	1.5232	1.4055	2.1393	6.4198	580.4517	701935
94	1	fast	0.4	0.5	right	79	0.71306	0.33737	1.2256	1.4055	1.9195	6.12	586.5717	708355
95	1	fast	0.7	0.3	left	80	1.1413	0.33792	1.3229	1.4055	2.4469	6.2192	592.7909	714475
96	1	fast	0.5	0.5	right	79	0.6719	0.33814	1.3251	1.4055	1.9772	6.2187	599.0096	720695
97	1	fast	0.4	0.7	right	79	0.69943	0.3384	1.4259	1.4055	2.1058	6.3199	605.3295	726915
98	0	fast	0.5	0.4	left	80	1.7315	0.33831	1.2247	1.4055	2.9384	6.1206	611.4501	733235
99	1	fast	0.3	0.5	right	79	0.70092	0.33732	1.1397	1.4055	1.8233	6.036	617.4861	739354
100	1	fast	0.7	0.6	left	80	0.8478	0.33824	1.6238	1.4055	2.4542	6.5198	624.0059	745391
101	1	fast	0.3	0.7	right	79	0.6347	0.33789	1.3397	1.4055	1.9571	6.2361	630.242	751911
102	1	fast	0.3	0.3	right	79	0.67351	0.33766	0.92396	1.4055	1.5793	5.8195	636.0615	758147
103	1	fast	0.3	0.6	left	80	1.1127	0.33775	1.2399	1.4055	2.3351	6.136	642.1975	763967
104	1	fast	0.7	0.6	left	80	1.3125	0.33792	1.6233	1.4055	2.9184	6.5197	648.7172	770103
105	1	fast	0.3	0.6	right	79	0.69535	0.33806	1.2234	1.4055	1.9011	6.122	654.8392	776623
106	1	fast	0.4	0.7	right	79	0.74551	0.35244	1.4382	1.4055	2.1661	6.3345	661.1737	782760
107	1	fast	0.6	0.3	left	80	1.2398	0.33739	1.24	1.4055	2.4623	6.1364	667.3101	789079
108	1	fast	0.5	0.6	left	80	0.97657	0.37106	1.4391	1.4055	2.3982	6.3358	673.6459	795249
109	1	fast	0.7	0.3	left	80	1.0703	0.3538	1.3232	1.4055	2.376	6.2196	679.8655	801569
110	1	fast	0.5	0.4	right	79	0.6189	0.33793	1.2235	1.4055	1.8248	6.1222	685.9877	807772
111	1	fast	0.7	0.3	left	80	0.92808	0.35156	1.3374	1.4055	2.248	6.2343	692.222	813909
112	1	fast	0.6	0.3	right	79	0.7017	0.35364	1.24	1.4055	1.9232	6.1381	698.3601	820145
113	1	fast	0.3	0.3	right	79	0.76563	0.3517	0.93784	1.4055	1.6854	5.8338	704.1939	826282
114	1	fast	0.6	0.6	left	80	0.81266	0.35395	1.5391	1.4055	2.3344	6.4359	710.6298	832118
115	1	fast	0.6	0.7	left	80	0.86803	0.35385	1.6238	1.4055	2.4745	6.5206	717.1504	838555
116	1	fast	0.5	0.6	right	79	0.75872	0.35358	1.4409	1.4055	2.1798	6.3354	723.4858	845075
117	1	fast	0.7	0.6	right	79	0.7292	0.35461	1.6424	1.4055	2.3539	6.5392	730.025	851411
118	1	fast	0.7	0.4	left	80	0.81538	0.35152	1.4376	1.4055	2.2355	6.3338	736.3588	857948
119	1	fast	0.6	0.6	right	79	0.65079	0.3545	1.5415	1.4055	2.1727	6.4392	742.798	864284
120	1	fast	0.3	0.4	right	79	0.67472	0.35167	1.0375	1.4055	1.6946	5.9345	748.7325	870721
121	1	fast	0.4	0.3	right	79	0.70055	0.38641	1.0383	1.4055	1.7213	5.9351	754.6676	876691
122	1	fast	0.5	0.5	left	80	1.2348	0.35361	1.3394	1.4055	2.5565	6.2359	760.9035	882594
123	1	fast	0.5	0.5	right	79	0.61755	0.35371	1.3402	1.4055	1.9402	6.237	767.1405	888830
124	1	fast	0.4	0.7	left	80	0.89696	0.35315	1.44	1.4055	2.3191	6.3367	773.4772	895067
125	1	fast	0.5	0.3	left	80	0.88474	0.35398	1.1403	1.4055	2.0074	6.0365	779.5137	901403
126	1	fast	0.3	0.6	left	80	1.0995	0.35323	1.2388	1.4055	2.3207	6.1358	785.6495	907440
127	1	fast	0.6	0.6	right	79	0.67644	0.35305	1.5403	1.4055	2.198	6.4354	792.0849	913576
128	1	fast	0.5	0.3	right	79	0.74377	0.35427	1.1398	1.4055	1.8683	6.0391	798.124	920013
129	1	fast	0.4	0.7	left	80	0.79043	0.35143	1.4374	1.4055	2.2101	6.3369	804.4609	926049
130	1	fast	0.5	0.7	left	80	1.1751	0.35068	1.5364	1.4055	2.6934	6.4329	810.8938	932386
131	1	fast	0.4	0.4	left	80	0.88617	0.35466	1.1406	1.4055	2.0088	6.0374	816.9312	938822
132	1	fast	0.6	0.4	right	79	0.58666	0.35274	1.3391	1.4055	1.9075	6.2355	823.1667	944859
133	1	fast	0.7	0.5	right	79	0.75218	0.35419	1.5415	1.4055	2.276	6.4388	829.6055	951095
134	1	fast	0.5	0.5	left	80	0.92302	0.36783	1.3397	1.4055	2.2423	6.2342	835.8397	957548
135	1	fast	0.7	0.4	left	80	1.1578	0.3697	1.4397	1.4055	2.5797	6.3366	842.1763	963785
136	1	fast	0.6	0.6	left	80	0.77442	0.35295	1.5383	1.4055	2.2951	6.4355	848.6118	970105
137	1	fast	0.3	0.3	right	79	0.77112	0.35359	0.94005	1.4055	1.6933	5.8372	854.449	976541
138	1	fast	0.4	0.7	left	80	0.72885	0.36921	1.4386	1.4055	2.1496	6.3356	860.7846	982394
139	1	fast	0.6	0.3	right	79	0.87533	0.35363	1.2398	1.4055	2.0971	6.1368	866.9214	988714
140	1	fast	0.3	0.7	right	79	0.76978	0.37001	1.3392	1.4055	2.0908	6.2358	873.1572	994867
141	0	slow	0.3	0.4	left	0	0	0.38486	1.0384	3.748	0	8.2783	881.4355	1050829
142	1	slow	0.4	0.4	right	79	0.94423	0.32721	1.1292	3.748	2.0564	8.3688	889.8043	1059050
143	1	slow	0.6	0.5	left	80	0.82826	0.3294	1.4325	3.748	2.2416	8.6703	898.4746	1067421
144	1	slow	0.5	0.6	left	80	0.81368	0.32959	1.432	3.748	2.2289	8.6723	907.1469	1076092
145	1	slow	0.6	0.7	right	79	0.51223	0.3278	1.6303	3.748	2.1248	8.8701	916.017	1084763
146	1	slow	0.5	0.3	right	79	0.76201	0.32903	1.1316	3.748	1.8761	8.3712	924.3882	1093634
147	1	slow	0.5	0.5	right	79	0.7134	0.32785	1.3339	3.748	2.0259	8.5718	932.96	1102005
148	1	slow	0.7	0.7	right	79	0.72372	0.32737	1.7301	3.748	2.4367	8.97	941.93	1110576
149	1	slow	0.6	0.5	right	79	0.68322	0.32768	1.4313	3.748	2.0963	8.6704	950.6004	1119547
150	1	slow	0.3	0.4	right	79	0.57574	0.32868	1.0313	3.748	1.5901	8.2715	958.8719	1128218
151	1	slow	0.7	0.5	right	79	0.67361	0.32682	1.5316	3.748	2.1863	8.7716	967.6435	1136489
152	1	slow	0.3	0.5	left	80	1.1783	0.32669	1.1297	3.748	2.2906	8.3692	976.0127	1145260
153	1	slow	0.4	0.6	right	79	0.6676	0.32806	1.3326	3.748	1.9806	8.5704	984.5831	1153631
154	1	slow	0.5	0.6	right	79	0.72089	0.32769	1.4314	3.748	2.134	8.6764	993.2595	1162202
155	1	slow	0.3	0.7	left	80	1.0399	0.33899	1.324	3.748	2.3465	8.564	1001.8235	1170890
156	1	slow	0.3	0.3	left	80	1.4801	0.32975	0.93095	3.748	2.3939	8.171	1009.9945	1179444
157	1	slow	0.4	0.6	right	79	0.61126	0.32893	1.3313	3.748	1.9253	8.5716	1018.5661	1187615
158	1	slow	0.5	0.6	left	80	1.3019	0.32787	1.4293	3.748	2.7143	8.672	1027.2381	1196186
159	1	slow	0.6	0.7	left	80	1.0978	0.32677	1.6288	3.748	2.7093	8.8689	1036.107	1204857
160	1	slow	0.7	0.4	left	80	1.109	0.32858	1.4317	3.748	2.5234	8.672	1044.779	1213728
161	1	slow	0.6	0.3	left	80	1.1681	0.32704	1.2296	3.748	2.3806	8.472	1053.251	1222399
162	1	slow	0.4	0.6	left	80	0.88478	0.3429	1.3287	3.748	2.1959	8.5687	1061.8197	1230887
163	1	slow	0.7	0.5	right	79	0.61781	0.32863	1.5314	3.748	2.1317	8.7714	1070.5911	1239441
164	1	slow	0.6	0.3	left	80	0.87268	0.34419	1.2301	3.748	2.0855	8.4706	1079.0617	1248229
165	1	slow	0.5	0.5	left	80	0.92074	0.34465	1.3302	3.748	2.234	8.5709	1087.6326	1256700
166	1	slow	0.7	0.7	right	79	0.62332	0.34402	1.73	3.748	2.3359	8.9701	1096.6027	1265271
167	1	slow	0.6	0.6	right	79	0.71883	0.3446	1.5314	3.748	2.2321	8.7712	1105.3739	1274242
168	1	slow	0.3	0.4	left	80	0.86514	0.34414	1.0303	3.748	1.8783	8.2729	1113.6468	1283013
169	1	slow	0.3	0.5	left	80	0.98448	0.34232	1.1272	3.748	2.0945	8.368	1122.0148	1291284
170	1	slow	0.3	0.3	left	80	0.8437	0.34481	0.93057	3.748	1.7571	8.1713	1130.1861	1299655
171	1	slow	0.3	0.3	right	79	0.56673	0.34451	0.93021	3.748	1.4798	8.1706	1138.3567	1307826
172	1	slow	0.5	0.5	left	80	0.81689	0.34467	1.3302	3.748	2.1299	8.5729	1146.9296	1315997
173	1	slow	0.4	0.3	right	79	0.61702	0.3426	1.0283	3.748	1.6272	8.2681	1155.1977	1324568
174	1	slow	0.6	0.5	right	79	0.60299	0.34396	1.4302	3.748	2.0156	8.6706	1163.8683	1332839
175	1	slow	0.7	0.7	left	80	0.78842	0.34425	1.731	3.748	2.5022	8.973	1172.8413	1341510
176	1	slow	0.7	0.4	left	80	0.90622	0.34258	1.4295	3.748	2.3181	8.67	1181.5113	1350481
177	1	slow	0.6	0.6	left	80	0.82476	0.34335	1.5284	3.748	2.336	8.7693	1190.2806	1359152
178	1	slow	0.3	0.6	left	80	0.8882	0.37855	1.231	3.748	2.1015	8.4713	1198.7519	1367957
179	1	slow	0.4	0.7	right	79	0.69779	0.34387	1.4296	3.748	2.1097	8.67	1207.4219	1376394
180	1	slow	0.5	0.3	right	79	0.76141	0.37923	1.131	3.748	1.8747	8.3716	1215.7935	1385099
181	1	slow	0.3	0.7	right	79	0.71757	0.34403	1.3289	3.748	2.0291	8.5698	1224.3633	1393436
182	1	slow	0.4	0.7	left	80	0.73857	0.3446	1.4295	3.748	2.1508	8.6724	1233.0357	1402007
183	1	slow	0.3	0.5	right	79	0.64913	0.34354	1.1332	3.748	1.7605	8.3719	1241.4076	1410678
184	1	slow	0.5	0.6	left	80	0.85861	0.34275	1.4265	3.748	2.2677	8.6674	1250.075	1419049
185	1	slow	0.4	0.5	left	80	1.1936	0.34486	1.2307	3.748	2.407	8.4713	1258.5463	1427720
186	1	slow	0.4	0.4	left	80	1.0017	0.34481	1.1307	3.748	2.1147	8.3718	1266.9181	1436191
187	1	slow	0.7	0.5	right	79	0.6677	0.34326	1.5281	3.748	2.1795	8.7705	1275.6886	1444562
188	1	slow	0.4	0.4	right	79	0.65594	0.34386	1.1293	3.748	1.7677	8.3702	1284.0588	1453333
189	1	slow	0.7	0.5	left	80	0.89591	0.34356	1.5305	3.748	2.4091	8.7744	1292.8332	1461704
190	1	slow	0.7	0.6	right	79	0.58477	0.35686	1.6268	3.748	2.1941	8.8678	1301.701	1470492
191	1	slow	0.7	0.5	right	79	0.69153	0.35984	1.5293	3.748	2.2036	8.7706	1310.4716	1479363
192	1	slow	0.6	0.4	right	79	0.7311	0.36051	1.3306	3.748	2.0423	8.5695	1319.0411	1488134
193	1	slow	0.6	0.3	left	80	0.94941	0.36139	1.2308	3.748	2.1622	8.4739	1327.515	1496705
194	1	slow	0.4	0.3	left	80	1.163	0.35797	1.028	3.748	2.1732	8.2687	1335.7837	1505176
195	1	slow	0.4	0.5	left	80	0.97617	0.3597	1.2314	3.748	2.1879	8.4704	1344.2541	1513447
196	1	slow	0.5	0.5	right	79	0.59965	0.36132	1.3292	3.748	1.9108	8.5722	1352.8263	1521918
197	1	slow	0.4	0.3	right	79	0.7723	0.35926	1.028	3.748	1.7823	8.2686	1361.0949	1530489
198	1	slow	0.4	0.5	left	80	0.75417	0.36092	1.2297	3.748	1.9665	8.4716	1369.5665	1538760
199	1	slow	0.4	0.3	right	79	0.83226	0.36057	1.0288	3.748	1.8431	8.2698	1377.8363	1547231
200	1	slow	0.4	0.3	right	79	0.95621	0.36135	1.0302	3.748	1.9687	8.2718	1386.1081	1555502
201	1	slow	0.6	0.4	left	80	0.87216	0.37613	1.3294	3.748	2.1835	8.5707	1394.6788	1563789
202	1	slow	0.3	0.7	right	79	0.63773	0.35913	1.3281	3.748	1.9481	8.5692	1403.248	1572344
203	1	slow	0.5	0.5	left	80	0.8322	0.36152	1.3325	3.748	2.1448	8.5735	1411.8215	1580915
204	1	slow	0.5	0.7	right	79	0.604	0.39179	1.5279	3.748	2.1144	8.7693	1420.5908	1589519
205	1	slow	0.4	0.7	right	79	0.7317	0.3593	1.4296	3.748	2.1428	8.67	1429.2608	1598257
206	1	slow	0.7	0.5	right	79	0.70829	0.36077	1.53	3.748	2.2206	8.7712	1438.032	1606928
207	1	slow	0.4	0.7	right	79	0.59282	0.35967	1.4295	3.748	2.0045	8.6714	1446.7034	1615699
208	1	slow	0.3	0.3	right	79	0.74449	0.35916	0.92865	3.748	1.6551	8.1701	1454.8735	1624370
209	1	slow	0.6	0.5	left	80	1.3161	0.36015	1.4289	3.748	2.7271	8.6727	1463.5462	1632541
210	1	slow	0.6	0.5	left	80	0.94295	0.37483	1.4277	3.748	2.3531	8.6706	1472.2168	1641229
211	1	slow	0.6	0.4	right	79	3.3229	0.39057	1.3273	3.748	4.6329	8.5733	1480.7901	1670427
212	1	slow	0.7	0.3	right	79	0.98473	0.32173	1.3247	3.748	2.2922	8.5655	1489.3556	1678931
213	1	slow	0.5	0.4	left	80	0.77363	0.32683	1.229	3.748	1.985	8.4692	1497.8248	1687502
214	1	slow	0.5	0.5	left	80	0.95692	0.328	1.3312	3.748	2.271	8.5721	1506.3969	1695973
215	1	slow	0.4	0.5	left	80	0.93826	0.32692	1.2278	3.748	2.149	8.4689	1514.8658	1704544
216	1	slow	0.3	0.3	left	80	0.82408	0.32874	0.93209	3.748	1.7369	8.1711	1523.0369	1713015
217	1	slow	0.6	0.4	left	80	0.86811	0.32794	1.3304	3.748	2.1815	8.5718	1531.6087	1721186
218	1	slow	0.3	0.3	right	79	0.91454	0.32613	0.92904	3.748	1.8266	8.1705	1539.7792	1729757
219	1	slow	0.7	0.6	right	79	0.89432	0.32728	1.6301	3.748	2.5071	8.8713	1548.6505	1737928
220	1	slow	0.7	0.4	right	79	0.8009	0.32611	1.429	3.748	2.2129	8.6703	1557.3208	1746799
221	1	slow	0.6	0.7	left	80	0.94015	0.32691	1.6285	3.748	2.5509	8.8696	1566.1904	1755470
222	1	slow	0.7	0.6	right	79	0.86585	0.32843	1.63	3.748	2.4787	8.8733	1575.0637	1764341
223	1	slow	0.7	0.4	left	80	1.1042	0.32532	1.4283	3.748	2.5151	8.6693	1583.733	1773212
224	1	slow	0.5	0.6	left	80	0.93035	0.32662	1.4305	3.748	2.3415	8.6694	1592.4024	1781883
225	1	slow	0.4	0.4	left	80	0.9168	0.32927	1.1318	3.748	2.0291	8.3817	1600.7841	1790554
226	1	slow	0.5	0.5	left	80	0.86799	0.33416	1.3352	3.748	2.1862	8.5769	1609.361	1798942
227	1	slow	0.3	0.4	left	80	0.78817	0.3279	1.0304	3.748	1.8015	8.2721	1617.6331	1807513
228	1	slow	0.4	0.4	right	79	0.85088	0.32698	1.129	3.748	1.9628	8.3709	1626.004	1815784
229	1	slow	0.7	0.7	right	79	0.78498	0.32632	1.7276	3.748	2.4957	8.9745	1634.9785	1824155
230	1	slow	0.6	0.7	right	79	0.74964	0.33939	1.624	3.748	2.3562	8.8657	1643.8442	1833143
231	1	slow	0.6	0.6	right	79	0.68811	0.34379	1.5318	3.748	2.2003	8.7709	1652.6151	1842014
232	1	slow	0.3	0.4	left	80	0.74732	0.32782	1.0298	3.748	1.7599	8.2733	1660.8884	1850768
233	1	slow	0.7	0.4	left	80	0.81844	0.34151	1.4259	3.748	2.2271	8.6673	1669.5557	1859056
234	1	slow	0.3	0.6	right	79	0.69356	0.32813	1.2314	3.748	1.9055	8.4709	1678.0266	1867710
235	1	slow	0.6	0.3	left	80	0.70196	0.34474	1.23	3.748	1.9147	8.4724	1686.499	1876198
236	1	slow	0.4	0.6	left	80	1.048	0.34326	1.3286	3.748	2.3594	8.573	1695.072	1884669
237	1	slow	0.4	0.4	right	79	1.0209	0.34005	1.1262	3.748	2.1298	8.3677	1703.4397	1893240
238	1	slow	0.7	0.6	left	80	0.75932	0.34314	1.6299	3.748	2.3719	8.8725	1712.3122	1901611
239	1	slow	0.6	0.5	right	79	0.7571	0.34216	1.4283	3.748	2.1683	8.6732	1720.9854	1910482
240	1	slow	0.4	0.7	left	80	0.67599	0.339	1.4248	3.748	2.0835	8.6667	1729.6521	1919153
241	1	slow	0.7	0.5	right	79	0.62865	0.34327	1.5277	3.748	2.1397	8.7703	1738.4224	1927824
242	1	slow	0.7	0.6	right	79	0.74599	0.34354	1.6306	3.748	2.3586	8.8719	1747.2943	1936595
243	1	slow	0.7	0.7	right	79	0.74219	0.3429	1.7293	3.748	2.4541	8.9739	1756.2682	1945466
244	1	slow	0.5	0.4	left	80	0.73656	0.33949	1.2263	3.748	1.9453	8.4683	1764.7365	1954437
245	1	slow	0.6	0.3	left	80	1.0859	0.34211	1.2285	3.748	2.2968	8.4708	1773.2073	1962908
246	1	slow	0.7	0.4	left	80	1.0523	0.34139	1.428	3.748	2.4627	8.6727	1781.88	1971379
247	1	slow	0.4	0.4	right	79	0.7339	0.3566	1.1276	3.748	1.8429	8.3691	1790.2491	1980067
248	1	slow	0.4	0.3	right	79	0.73291	0.34093	1.0281	3.748	1.7436	8.4112	1798.6603	1988421
249	1	slow	0.4	0.7	left	80	0.78992	0.35153	1.4375	3.748	2.2099	8.6797	1807.34	1996842
250	1	slow	0.5	0.6	right	79	0.69452	0.34198	1.4286	3.748	2.1054	8.6708	1816.0108	2005513
251	1	slow	0.4	0.4	right	79	0.75651	0.34129	1.1275	3.748	1.8658	8.3688	1824.3796	2014184
252	1	slow	0.6	0.4	left	80	1.176	0.34378	1.3283	3.748	2.4869	8.5707	1832.9503	2022555
253	1	slow	0.5	0.3	left	80	0.89766	0.36053	1.1298	3.748	2.01	8.3749	1841.3252	2031143
254	1	slow	0.3	0.3	left	80	0.98821	0.35589	0.9228	3.748	1.8956	8.1676	1849.4928	2039514
255	1	slow	0.6	0.5	right	79	0.73458	0.34244	1.4289	3.748	2.1462	8.6802	1858.173	2047668
256	1	slow	0.6	0.6	left	80	0.75938	0.34955	1.5351	3.748	2.2771	8.7852	1866.9582	2056356
257	1	slow	0.5	0.4	right	79	0.68341	0.35115	1.2373	3.748	1.9027	8.4872	1875.4454	2065144
258	1	slow	0.7	0.4	left	80	0.72065	0.36809	1.4381	3.748	2.1408	8.6805	1884.1259	2073648
259	1	slow	0.5	0.3	right	79	0.66879	0.37593	1.1275	3.748	1.7787	8.3816	1892.5075	2082336
260	1	slow	0.7	0.7	left	80	0.77774	0.36452	1.7364	3.748	2.4932	8.9851	1901.4926	2090707
261	1	slow	0.5	0.3	right	79	0.668	0.36705	1.1365	3.748	1.7859	8.3793	1909.8719	2099694
262	1	slow	0.6	0.5	right	79	0.8297	0.35742	1.4271	3.748	2.2393	8.6697	1918.5416	2108065
263	1	slow	0.3	0.5	left	80	0.65788	0.37596	1.1285	3.748	1.769	8.3717	1926.9133	2116753
264	1	slow	0.4	0.4	right	79	0.64428	0.35823	1.1444	3.748	1.7711	8.3875	1935.3008	2125107
265	1	slow	0.3	0.6	right	79	0.76364	0.5577	1.2271	3.748	1.9727	8.4769	1943.7777	2133695
266	1	slow	0.3	0.5	left	80	0.96295	0.3847	1.1389	3.748	2.0823	8.3797	1952.1574	2141999
267	1	slow	0.5	0.5	right	79	0.5911	0.35888	1.3275	3.748	1.9024	8.5705	1960.7279	2150353
268	1	slow	0.4	0.3	right	79	0.8812	0.35916	1.0275	3.748	1.8912	8.2707	1968.9986	2158924
269	1	slow	0.6	0.3	left	80	0.84798	0.35946	1.2295	3.748	2.0597	8.474	1977.4726	2167195
270	1	slow	0.5	0.3	right	79	0.8117	0.35626	1.1253	3.748	1.9196	8.3694	1985.842	2175666
271	1	slow	0.7	0.3	left	80	1.0366	0.35743	1.3256	3.748	2.3446	8.5712	1994.4132	2184037
272	1	slow	0.7	0.3	right	79	1.1798	0.35701	1.3268	3.748	2.4888	8.5704	2002.9836	2192608
273	1	slow	0.4	0.7	right	79	0.77566	0.35681	1.4265	3.748	2.1846	8.6682	2011.6518	2201179
274	1	slow	0.3	0.3	left	80	0.72611	0.35903	0.92844	3.748	1.6366	8.1715	2019.8233	2209850
275	1	slow	0.4	0.6	left	80	0.93489	0.35863	1.3264	3.748	2.2455	8.5715	2028.3948	2218021
276	1	slow	0.7	0.4	left	80	0.67214	0.35745	1.4274	3.748	2.0818	8.6713	2037.0661	2226592
277	1	slow	0.3	0.5	right	79	0.71703	0.37572	1.1266	3.748	1.8259	8.3684	2045.4345	2235280
278	1	slow	0.5	0.6	right	79	0.78378	0.35876	1.4296	3.748	2.1949	8.6763	2054.1108	2243634
279	1	slow	0.6	0.5	right	79	0.80438	0.37026	1.4412	3.748	2.2274	8.6842	2062.795	2252322
280	1	slow	0.4	0.7	left	80	0.75255	0.35673	1.426	3.748	2.1607	8.6701	2071.4651	2260993
